# FREQS (CM^-1)
20.1587
20.1587
24.6125
24.6125
27.7148
27.7148
30.22
30.22
31.0803
31.0803
34.9201
34.9201
35.4848
35.4848
35.9962
35.9962
37.8584
41.5518
41.5518
44.5007
44.5007
45.6123
45.6123
46.9184
46.9184
46.9268
46.9268
47.1867
47.1867
47.9061
47.9061
48.4089
48.4089
48.6069
48.6069
48.8516
48.8516
48.9323
48.9323
49.7998
49.7998
50.3252
50.3252
50.9024
50.9024
50.9793
50.9793
51.2939
51.2939
51.4005
51.4005
51.5615
51.5615
52.5325
52.5325
52.5453
52.5453
52.6718
52.6718
52.7867
52.7867
53.2405
53.2405
53.254
53.254
53.2884
53.2884
53.4804
53.4804
53.7797
53.7797
53.9078
53.9078
53.9422
53.9422
53.999
53.999
54.0065
54.0065
54.042
54.042
54.0707
54.0707
54.3295
54.3295
54.9273
54.9273
55.2325
55.2325
55.2764
55.2764
55.5005
55.5005
55.6493
55.6493
55.6561
55.6561
55.7176
55.7176
55.7697
55.7697
55.7838
55.7838
55.8931
55.8931
55.9279
55.9279
56.0985
56.0985
56.2067
56.2067
56.2067
56.2067
56.6113
56.6113
57.0342
57.0342
57.0555
57.0555
57.1847
57.1847
57.3268
57.3268
57.3402
57.3402
57.552
57.552
57.5717
57.5717
57.5755
57.5755
57.5755
57.5755
57.6997
57.6997
57.9546
57.9546
58.1701
58.1701
58.3495
58.3495
58.4975
58.4975
58.6796
58.6796
58.7222
58.7222
59.1437
59.1437
59.202
59.202
59.3098
59.3098
59.3504
59.3504
59.394
59.394
59.4015
59.4015
59.4714
59.4714
59.9185
59.9185
59.9185
59.9185
60.4165
60.4165
60.5004
60.5004
60.8176
60.8176
60.8756
60.8756
60.8979
60.8979
61.0622
61.0622
61.4196
61.4196
61.5669
61.5669
61.7416
61.7416
61.7903
61.7903
61.9598
61.9598
61.9808
61.9808
61.9808
61.9808
61.9957
61.9957
62.3426
62.3426
62.8976
62.8976
62.9932
62.9932
63.0902
63.0902
63.1925
63.1925
63.4168
63.4168
63.4331
63.4331
63.4412
63.4412
63.6926
63.6926
63.8368
63.8368
63.8394
63.8394
63.8428
63.8428
63.9504
63.9504
64.1061
64.1061
64.2097
64.2097
64.238
64.238
64.2697
64.2697
64.3201
64.3201
65.044
65.044
65.1785
65.1785
65.3342
65.3342
65.4851
65.4851
65.7197
65.7197
65.8436
65.8436
65.8877
65.8877
65.9555
65.9555
66.0398
66.0398
66.1755
66.1755
66.2724
66.2724
66.2999
66.2999
66.7421
66.7421
66.894
66.894
67.1882
67.1882
67.2003
67.2003
67.2667
67.2667
67.3015
67.3015
67.3647
67.3647
67.4751
67.4751
67.4751
67.4751
67.6196
67.6196
67.9967
67.9967
68.0888
68.0888
68.1606
68.1606
68.2701
68.2701
68.3423
68.3423
68.3762
68.3762
68.6755
68.6755
68.7508
68.7508
68.7812
68.7812
68.9131
68.9131
69.0257
69.0257
69.0257
69.0257
69.2141
69.2141
69.3247
69.3247
69.3889
69.3889
70.1381
70.1381
70.1395
70.1395
70.3665
70.3665
70.3665
70.3665
70.5194
70.5194
70.5998
70.5998
70.6472
70.6472
70.6651
70.6651
70.7307
70.7307
70.7307
70.7307
71.0044
71.0044
71.1422
71.1422
71.1549
71.1549
71.5988
71.5988
71.7748
71.7748
71.7748
71.7748
71.8783
71.8783
72.039
72.039
72.0543
72.0543
72.1258
72.1258
72.1362
72.1362
72.5416
72.5416
72.6774
72.6774
72.8001
72.8001
72.829
72.829
72.9424
72.9424
73.0133
73.0133
73.0133
73.0133
73.0515
73.0515
73.196
73.196
73.2679
73.2679
73.3102
73.3102
73.3225
73.3225
73.3903
73.3903
73.5815
73.5815
73.6878
73.6878
73.7555
73.7555
73.8409
73.8409
74.0674
74.0674
74.0964
74.0964
74.7121
74.7121
74.7121
74.7121
74.7389
74.7389
74.8182
74.8182
74.9209
74.9209
75.1
75.1
75.1543
75.1543
75.1754
75.1754
75.2092
75.2092
75.2092
75.2092
75.2505
75.2505
75.2505
75.2505
75.3283
75.3283
75.3311
75.3311
75.3573
75.3573
75.5246
75.5246
75.5471
75.5471
75.6606
75.6606
75.821
75.821
75.836
75.836
75.8686
75.8686
75.9951
75.9951
76.0422
76.0422
76.1244
76.1244
76.2408
76.2408
76.2565
76.2565
76.2819
76.2819
76.2937
76.2937
76.3097
76.3097
76.3839
76.3839
76.3839
76.3839
76.577
76.577
76.5965
76.5965
76.62
76.62
76.6276
76.6276
76.6998
76.6998
76.7604
76.7604
76.7702
76.7702
76.8571
76.8571
77.1638
77.1638
77.1665
77.1665
77.3059
77.3059
77.6816
77.6816
77.7337
77.7337
77.7398
77.7398
77.8558
77.8558
77.9774
77.9774
77.9814
77.9814
78.1485
78.1485
78.3561
78.3561
78.5728
78.5728
78.6824
78.6824
78.7442
78.7442
78.7442
78.7442
78.8134
78.8134
78.9438
78.9438
79.2964
79.2964
79.3485
79.3485
79.414
79.414
79.4479
79.4479
79.4654
79.4654
79.5511
79.5511
79.5602
79.5602
79.5602
79.5602
79.5615
79.5615
79.6112
79.6112
79.8111
79.8111
79.8337
79.8337
79.8998
79.8998
79.9061
79.9061
79.9904
79.9904
80.0334
80.0334
80.2215
80.2215
80.2237
80.2237
80.6193
80.6193
80.6707
80.6707
80.8322
80.8322
80.9528
80.9528
80.9538
80.9538
81.1505
81.1505
81.1816
81.1816
81.2961
81.2961
81.5214
81.5214
81.7198
81.7198
81.7664
81.7664
81.7664
81.7664
82.0432
82.0432
82.1024
82.1024
82.1024
82.1024
82.1074
82.1074
82.1243
82.1243
82.2172
82.2172
82.3934
82.3934
82.4333
82.4333
82.8069
82.8069
83.1274
83.1274
83.1603
83.1603
83.1815
83.1815
83.2662
83.2662
83.3726
83.3726
83.4427
83.4427
83.5276
83.5276
83.5874
83.5874
83.8434
83.8434
83.9263
83.9263
83.9945
83.9945
83.9945
83.9945
84.0059
84.0059
84.0483
84.0483
84.139
84.139
84.141
84.141
84.2309
84.2309
84.2808
84.2808
84.2916
84.2916
84.3816
84.3816
84.5377
84.5377
84.5837
84.5837
84.6712
84.6712
84.7536
84.7536
84.7565
84.7565
84.7867
84.7867
84.9009
84.9009
84.9301
84.9301
84.9453
84.9453
84.9456
84.9456
85.0708
85.0882
85.0882
85.2491
85.2491
85.4077
85.4077
85.5066
85.5066
85.621
85.621
85.6972
85.6972
85.7619
85.7619
85.7843
85.7843
85.923
85.923
85.9303
85.9303
86.0562
86.0562
86.0934
86.0934
86.0984
86.0984
86.1276
86.1276
86.3335
86.3335
86.3751
86.3751
86.6357
86.6357
86.6449
86.6449
86.647
86.647
86.6954
86.6954
86.8049
86.8049
86.9313
86.9313
86.9365
86.9365
87.0788
87.0788
87.1527
87.1527
87.2112
87.2112
87.3298
87.3298
87.3298
87.3298
87.3926
87.3926
87.4189
87.4189
87.4387
87.4387
87.4514
87.4514
87.4514
87.4514
87.4669
87.5961
87.5961
87.7005
87.7005
87.9485
87.9485
87.9899
87.9899
88.0114
88.0114
88.0332
88.0332
88.0697
88.0697
88.1676
88.1676
88.4461
88.4461
88.4772
88.4772
88.7288
88.7288
88.7765
88.7765
88.8039
88.8039
88.9438
88.9438
89.0649
89.0649
89.0904
89.1382
89.1382
89.1654
89.1654
89.1974
89.1974
89.2554
89.2554
89.2554
89.2554
89.3045
89.3045
89.5355
89.5355
89.5464
89.5464
90.0438
90.0438
90.0833
90.0833
90.1081
90.1081
90.509
90.509
90.5803
90.5803
90.7818
90.7818
91.078
91.078
91.1006
91.1006
91.1177
91.1177
91.3668
91.3668
91.5669
91.5669
91.5669
91.5669
91.7459
91.7459
91.7717
91.7717
91.7884
91.7884
91.7884
91.7884
91.9675
91.9675
92.029
92.029
92.0654
92.4018
92.4018
92.5626
92.5626
92.6531
92.6531
92.9139
92.9139
92.9213
92.9213
93.0123
93.0123
93.092
93.092
93.2399
93.2399
93.2533
93.2533
93.4879
93.4879
93.5929
93.5929
93.6492
93.6492
93.6492
93.6492
93.6968
93.6968
93.7257
93.7257
93.8722
93.8722
93.8996
93.8996
93.9292
93.9292
94.0742
94.0742
94.1419
94.1419
94.15
94.15
94.2793
94.2793
94.3267
94.3267
94.4614
94.4614
94.7338
94.7338
94.7702
94.7702
94.8094
94.8094
94.8492
94.8492
94.9003
94.9003
94.9151
94.9151
95.0489
95.0489
95.2245
95.2245
95.2552
95.2552
95.531
95.531
95.8773
95.8773
96.1483
96.1483
96.1562
96.1562
96.35
96.35
96.601
96.601
96.7715
96.7715
96.814
96.814
96.953
96.953
96.9916
96.9916
97.3058
97.3058
97.4132
97.4132
97.4629
97.4629
97.4741
97.4741
97.4848
97.4848
97.5061
97.7732
97.7732
97.7732
97.7732
97.8825
97.8825
97.9141
97.9141
98.4242
98.4242
98.5146
98.5146
98.5952
98.5952
98.6098
98.6098
98.7406
98.7406
98.8624
98.8624
98.8627
98.8627
98.8647
98.8647
98.9481
98.9481
99.0736
99.0736
99.0736
99.0736
99.3328
99.3328
99.5254
99.5254
99.6403
99.6403
99.7115
99.7115
99.7428
99.7428
99.9111
99.9111
99.9752
99.9752
100.1123
100.1123
100.1123
100.1123
100.1867
100.1867
100.5782
100.5782
100.5932
100.5932
100.6082
100.6082
100.8429
100.8429
100.9285
100.9285
100.9769
100.9769
101.0597
101.0597
101.1783
101.1783
101.1995
101.1995
101.2358
101.2358
101.3355
101.3355
101.3729
101.3729
101.7628
101.7628
101.8749
101.8749
101.9517
101.9517
102.0239
102.0239
102.0239
102.0239
102.1595
102.1595
102.3073
102.3073
102.3206
102.3206
102.3525
102.3525
102.5924
102.5924
102.6872
102.6872
102.7291
102.8585
102.8585
102.867
102.867
102.9799
102.9799
102.9903
102.9903
103.1629
103.1629
103.2293
103.2293
103.3387
103.3387
103.349
103.349
103.3768
103.3768
103.3927
103.3927
103.5405
103.5405
103.578
103.578
103.5876
103.5876
103.7758
103.7758
103.7844
103.7844
103.8234
103.8234
104.0515
104.0515
104.0515
104.0515
104.2746
104.6667
104.6667
104.6814
104.6814
104.8375
104.8375
105.0639
105.0639
105.2344
105.2344
105.2688
105.2688
105.3335
105.3335
105.352
105.352
105.5886
105.5886
105.8404
105.8404
105.8404
105.8404
105.8556
105.8556
105.9114
105.9114
105.9178
105.9178
105.926
105.926
106.0185
106.0185
106.1466
106.1466
106.2683
106.2683
106.3609
106.3609
106.3869
106.3869
106.3869
106.3869
106.43
106.43
106.4734
106.4734
106.52
106.52
106.5315
106.5315
106.6945
106.6945
106.6945
106.6945
106.7745
106.7745
106.9794
106.9794
107.0252
107.0252
107.0674
107.0674
107.1399
107.1399
107.1415
107.1415
107.1865
107.1865
107.2068
107.2068
107.2979
107.2979
107.3186
107.3186
107.4248
107.4248
107.659
107.659
107.7004
107.7004
107.7419
107.7419
107.743
107.743
107.7928
107.7928
108.02
108.02
108.219
108.219
108.3134
108.3134
108.3466
108.3466
108.4311
108.4311
108.4596
108.4596
108.5998
108.5998
108.6833
108.6833
108.9545
108.9545
109.1128
109.1128
109.198
109.198
109.2063
109.2063
109.2192
109.2192
109.3149
109.3149
109.3529
109.3529
109.5113
109.5113
109.5569
109.5569
109.6319
109.6319
109.7573
109.7573
109.7573
109.7573
109.8017
109.8017
109.8372
109.8372
110.1454
110.1454
110.2067
110.2067
110.2131
110.2131
110.2131
110.2131
110.2646
110.2646
110.4113
110.4113
110.4647
110.4647
110.5022
110.5022
110.5633
110.5633
110.5833
110.5833
110.6852
110.6852
110.8389
110.8389
110.8605
110.8605
110.876
110.876
110.8888
110.8888
111.0091
111.0091
111.1738
111.1738
111.1769
111.1769
111.2418
111.2418
111.2731
111.2731
111.528
111.528
111.5316
111.5316
112.1261
112.1261
112.1261
112.1261
112.2034
112.2034
112.2224
112.2224
112.4047
112.4047
112.5711
112.5711
112.5715
112.5715
112.6112
112.6112
112.6128
112.6128
112.6128
112.6128
112.6677
112.6677
112.6846
112.6846
112.7197
112.7197
112.73
112.73
112.8481
112.8481
112.9072
112.9072
112.9799
112.9799
113.1043
113.1043
113.1671
113.1671
113.4353
113.4353
113.4851
113.4851
113.6299
113.6299
113.6472
113.6472
113.7391
113.7391
113.9699
113.9699
114.0023
114.0023
114.0172
114.0172
114.2107
114.2107
114.2507
114.2507
114.4391
114.4391
114.5695
114.5695
114.6518
114.6518
114.6854
114.6854
114.7604
114.7604
114.8049
114.8049
115.0653
115.0653
115.1055
115.1055
115.1391
115.1391
115.3794
115.3794
115.3801
115.3801
115.3801
115.3801
115.4782
115.4782
115.5526
115.5526
115.554
115.554
115.5838
115.5838
115.5838
115.5838
115.9432
115.9432
115.9483
115.9483
116.0199
116.0199
116.0693
116.0693
116.0783
116.0783
116.1612
116.1612
116.2453
116.2453
116.2725
116.2725
116.3119
116.3119
116.4564
116.4564
116.6315
116.6315
116.7308
116.7308
116.9322
116.9322
116.9331
117.0938
117.0938
117.1569
117.1569
117.1974
117.1974
117.227
117.227
117.2666
117.2666
117.3931
117.3931
117.4607
117.4607
117.4851
117.4851
117.6729
117.6729
117.793
117.793
117.7962
117.7962
117.7962
117.7962
117.8047
117.8047
117.9115
117.9115
117.9643
117.9643
118.0943
118.0943
118.2488
118.2488
118.2777
118.2777
118.3355
118.3355
118.3769
118.3769
118.5504
118.5504
118.654
118.654
118.6918
118.6918
118.751
118.751
118.7806
118.7806
118.8184
118.8184
118.871
118.871
118.9036
118.9036
118.9718
118.9718
118.9918
118.9918
119.086
119.086
119.111
119.111
119.1742
119.1742
119.5434
119.5434
119.6362
119.6362
119.6432
119.6432
119.6817
119.6817
119.8314
119.8314
119.9686
119.9686
119.9989
119.9989
120.1117
120.1117
120.1121
120.1121
120.1247
120.1247
120.1695
120.1695
120.2581
120.2581
120.2599
120.2599
120.4347
120.4347
120.4794
120.4794
120.5867
120.5867
120.8863
120.8863
120.9478
120.9478
120.9521
120.9521
121.018
121.018
121.0855
121.0855
121.0998
121.0998
121.1704
121.1704
121.2771
121.2771
121.2859
121.2859
121.3117
121.3117
121.3117
121.3117
121.3744
121.3744
121.4366
121.4366
121.4828
121.4828
121.5192
121.5192
121.5446
121.5446
121.6508
121.6508
121.7472
121.7472
121.9112
121.9112
121.9256
121.9256
121.9632
121.9632
121.9858
121.9858
121.9896
121.9896
122.0263
122.0263
122.0349
122.0349
122.0349
122.0349
122.0463
122.0463
122.0529
122.0529
122.0773
122.0773
122.1022
122.1022
122.1489
122.1489
122.1489
122.1489
122.2429
122.2429
122.4189
122.4189
122.5167
122.5167
122.5818
122.5818
122.6102
122.6102
122.7712
122.7712
122.9123
122.9123
122.9141
122.9141
122.9612
122.9612
123.0116
123.0116
123.095
123.095
123.4408
123.4408
123.5416
123.5416
123.5768
123.5768
123.6017
123.6017
123.6366
123.6366
123.6508
123.6508
123.6882
123.6882
123.6882
123.6882
123.7061
123.7061
123.7304
123.7304
123.7929
123.7929
123.8073
123.8073
123.8073
123.8073
123.87
123.87
123.9219
123.9219
124.0175
124.0175
124.0402
124.0402
124.2755
124.2755
124.4141
124.4141
124.4308
124.4308
124.4334
124.4334
124.4457
124.4457
124.5655
124.5655
124.5978
124.5978
124.6101
124.6101
124.6106
124.6106
124.6523
124.6523
124.7298
124.7298
124.7415
124.7415
124.791
124.791
124.791
124.791
124.8079
124.8079
124.8468
124.8468
124.9167
124.9167
125.0608
125.0608
125.1602
125.1602
125.2154
125.2154
125.2687
125.2687
125.3076
125.3076
125.3883
125.3883
125.4585
125.4585
125.4838
125.4838
125.4838
125.4838
125.4905
125.4905
125.5091
125.5091
125.5756
125.5756
125.6637
125.6637
125.6641
125.6641
125.6833
125.6833
125.7441
125.7441
125.8139
125.8139
125.8225
125.8225
125.8643
125.8643
125.8643
125.8643
125.876
125.876
125.9104
125.9104
126.0272
126.0272
126.1379
126.1379
126.1628
126.1628
126.1632
126.1632
126.241
126.241
126.2439
126.2439
126.2439
126.2439
126.2722
126.2722
126.3059
126.3059
126.3059
126.3059
126.3671
126.3671
126.486
126.486
126.5311
126.5311
126.5505
126.5505
126.6002
126.6002
126.6121
126.6121
126.6646
126.6646
126.7283
126.7283
126.7928
126.7928
126.8913
126.8913
127.1634
127.1767
127.1767
127.1833
127.1833
127.2271
127.2271
127.271
127.271
127.4516
127.4516
127.4786
127.4786
127.5532
127.5532
127.5681
127.5681
127.597
127.597
127.597
127.597
127.6215
127.6215
127.7192
127.7192
127.7235
127.7235
127.7235
127.7235
127.797
127.797
127.797
127.797
127.8001
127.8001
127.8541
127.8541
127.8687
127.8687
127.9659
127.9659
127.9674
127.9674
128.0958
128.0958
128.1454
128.1454
128.155
128.155
128.1561
128.1561
128.1731
128.1731
128.4027
128.4027
128.4296
128.4296
128.5857
128.5857
128.7457
128.7457
128.9823
128.9823
129.0541
129.0541
129.1568
129.1568
129.1753
129.1753
129.271
129.271
129.3237
129.3237
129.359
129.359
129.3603
129.3603
129.3929
129.3929
129.5115
129.5115
129.6185
129.6185
129.71
129.71
129.8848
129.8848
129.9078
129.9078
130.0011
130.0011
130.1531
130.1531
130.2096
130.2096
130.3504
130.3504
130.3792
130.3792
130.4052
130.4052
130.547
130.547
130.5774
130.5774
130.5774
130.5774
130.6021
130.6021
130.6435
130.6435
130.7011
130.7011
130.9489
130.9489
130.9854
130.9854
131.0386
131.0386
131.0917
131.0917
131.1215
131.1215
131.1261
131.1261
131.2014
131.2014
131.2843
131.2843
131.2879
131.2879
131.3164
131.3164
131.3189
131.3189
131.3659
131.3659
131.4094
131.5109
131.5109
131.6499
131.6499
131.7627
131.7627
131.7813
131.7813
131.8612
131.8612
132.0043
132.0043
132.0273
132.0273
132.0779
132.0779
132.0779
132.0779
132.112
132.112
132.1417
132.1417
132.1417
132.1417
132.1569
132.1569
132.1862
132.1862
132.1864
132.1864
132.2086
132.2086
132.3102
132.3102
132.3354
132.3354
132.4116
132.4116
132.4824
132.4824
132.4989
132.4989
132.5169
132.5169
132.5701
132.5701
132.5744
132.5744
132.7513
132.7513
132.7701
132.7701
132.7934
132.7934
132.8512
132.8512
132.9727
132.9727
133.1063
133.1063
133.2907
133.2907
133.3956
133.3956
133.653
133.653
133.6614
133.6614
133.6903
133.6903
133.6916
133.6916
133.7682
133.7682
133.9559
133.9559
133.9643
133.9643
134.0676
134.0676
134.1825
134.1825
134.2154
134.2154
134.2719
134.2719
134.2785
134.2785
134.3256
134.3256
134.5402
134.5402
134.6514
134.6514
134.7039
134.7039
134.8481
134.8481
134.8817
134.8817
134.9356
134.9356
135.1463
135.1463
135.1625
135.1625
135.2558
135.2558
135.3186
135.3186
135.347
135.347
135.4607
135.4607
135.4706
135.4706
135.5061
135.5061
135.6874
135.6874
135.6981
135.6981
135.7257
135.7257
135.8265
135.8265
135.9015
135.9015
135.9074
135.9074
135.9213
135.9213
136.2362
136.2362
136.293
136.293
136.3065
136.3065
136.3224
136.3224
136.326
136.326
136.4428
136.4428
136.4893
136.4893
136.5209
136.5209
136.5993
136.5993
136.6686
136.6686
136.7141
136.7141
136.7756
136.7756
136.8078
136.8078
136.8194
136.8194
136.8982
136.8982
136.9012
136.9012
136.944
137.0309
137.0309
137.075
137.075
137.1497
137.1497
137.1544
137.1544
137.1548
137.1548
137.2399
137.2399
137.3209
137.3209
137.5655
137.5655
137.5739
137.5739
137.6248
137.6248
137.6283
137.6283
137.8117
137.8117
137.8835
137.8835
137.8865
137.8865
138.0698
138.0698
138.1178
138.1178
138.2445
138.2445
138.2501
138.2916
138.2916
138.404
138.404
138.4396
138.4396
138.5005
138.5005
138.5005
138.5005
138.5549
138.5549
138.5963
138.5963
138.7128
138.7128
138.7389
138.7389
138.7437
138.7437
138.7437
138.7437
138.8234
138.8234
138.8264
138.8264
138.9029
138.9029
138.9029
138.9029
138.9457
138.9457
139.0983
139.0983
139.0996
139.0996
139.0997
139.0997
139.1105
139.1105
139.1708
139.1708
139.2062
139.2062
139.4337
139.4337
139.4724
139.5018
139.5018
139.5018
139.5018
139.5502
139.5502
139.5728
139.5728
139.8363
139.8363
139.8667
139.8667
139.9068
139.9068
139.9888
139.9888
140.0928
140.0928
140.1262
140.1262
140.1268
140.1268
140.2952
140.2952
140.2982
140.2982
140.2982
140.2982
140.3307
140.3307
140.3307
140.3307
140.3626
140.3626
140.3911
140.3911
140.4323
140.4323
140.5277
140.5277
140.6072
140.6072
140.6287
140.6287
140.6287
140.6287
140.7241
140.7241
140.7311
140.7311
140.7311
140.7311
140.782
140.782
140.8683
140.8683
140.9747
140.9747
140.9844
140.9844
141.0422
141.0422
141.073
141.073
141.2865
141.2865
141.3079
141.3079
141.3254
141.3254
141.3544
141.3544
141.5261
141.5261
141.5277
141.5277
141.7053
141.7053
141.7144
141.7144
141.7469
141.7469
141.7717
141.7717
141.7922
141.7922
141.818
141.818
141.8191
141.8191
141.8715
141.8715
141.9009
141.9009
141.9829
141.9829
142.0046
142.0046
142.0236
142.0236
142.0236
142.0236
142.1009
142.1009
142.2727
142.2727
142.3142
142.3142
142.3152
142.3152
142.4328
142.4328
142.4404
142.4404
142.4848
142.4848
142.5829
142.5829
142.6226
142.6226
142.6739
142.6739
142.7221
142.7221
142.7846
142.7846
142.8133
142.8133
143.0328
143.0328
143.0328
143.0328
143.052
143.052
143.0922
143.0922
143.1331
143.1331
143.1331
143.1331
143.1651
143.1651
143.5956
143.5956
143.5991
143.5991
143.6235
143.6235
143.6552
143.6552
143.6552
143.6552
143.6581
143.6581
143.6849
143.6849
143.7331
143.7331
144.2177
144.2177
144.2394
144.2394
144.3731
144.3731
144.476
144.476
144.505
144.505
144.5399
144.5399
144.5795
144.5795
144.7665
144.7665
144.8003
144.8003
144.817
144.817
144.8174
144.8174
144.8174
144.8174
144.8297
144.8297
144.8338
144.8338
144.8846
144.8846
144.9065
144.9065
144.9111
144.9111
144.9533
144.9533
145.0139
145.0139
145.0601
145.0601
145.2369
145.2369
145.3441
145.3441
145.3885
145.3885
145.4089
145.4089
145.4282
145.4282
145.5116
145.5116
145.6644
145.6644
145.7016
145.7016
145.8126
145.8126
145.874
145.874
146.039
146.039
146.1632
146.1632
146.2326
146.2326
146.3188
146.3188
146.356
146.356
146.46
146.46
146.5582
146.703
146.703
147.0463
147.0463
147.0814
147.0814
147.3202
147.3202
147.4065
147.4065
147.4065
147.4065
147.4143
147.4143
147.617
147.617
147.6437
147.6437
147.6461
147.6461
147.7752
147.7752
147.79
147.79
147.8474
147.8474
147.8543
147.8543
147.9859
147.9859
148.0026
148.0026
148.0027
148.0027
148.1319
148.1319
148.3199
148.3199
148.5579
148.5579
148.6541
148.6541
148.6794
148.6794
148.6851
148.6851
148.7356
148.7356
148.7711
148.7711
148.7711
148.7711
148.7979
148.7979
148.8907
148.8907
148.9475
148.9475
149.0159
149.0159
149.0648
149.0648
149.1282
149.1282
149.2055
149.2055
149.218
149.218
149.2275
149.2815
149.2815
149.394
149.394
149.4366
149.4366
149.4782
149.4782
149.5293
149.5293
149.5465
149.5465
149.6024
149.6024
149.641
149.641
149.7482
149.7923
149.7923
149.8647
149.8647
149.9381
149.9381
149.9638
149.9638
150.0256
150.0256
150.2681
150.2681
150.3126
150.3126
150.343
150.343
150.3587
150.3587
150.38
150.38
150.3951
150.3951
150.4391
150.4391
150.4858
150.4858
150.5014
150.5014
150.5218
150.5218
150.6663
150.6663
150.6763
150.6763
150.6763
150.6763
150.694
150.694
150.7124
150.7124
150.7666
150.7666
150.7967
150.7967
150.7978
150.7978
150.9442
150.9442
151.0075
151.0075
151.0474
151.0474
151.0531
151.0531
151.0807
151.0807
151.0815
151.0815
151.082
151.082
151.1067
151.1067
151.1101
151.1101
151.1421
151.1421
151.1456
151.1456
151.2102
151.2102
151.2759
151.2759
151.3245
151.3245
151.4234
151.4234
151.4991
151.4991
151.5111
151.5111
151.616
151.616
151.6355
151.6355
151.7
151.7
151.7235
151.7235
151.7974
151.7974
151.8154
151.8154
151.972
151.972
152.0585
152.0585
152.1372
152.1372
152.1611
152.1611
152.1828
152.1828
152.2235
152.2235
152.2274
152.2274
152.2313
152.3171
152.3171
152.358
152.358
152.4259
152.4259
152.5605
152.5605
152.5867
152.5867
152.5888
152.5888
152.6078
152.6078
152.6338
152.6338
152.6987
152.6987
152.7114
152.7114
152.7366
152.7366
152.7366
152.7366
152.9687
152.9687
153.0891
153.0891
153.0905
153.0905
153.1342
153.1342
153.168
153.168
153.2036
153.2036
153.2036
153.2036
153.2248
153.2248
153.2248
153.2248
153.2664
153.2664
153.2664
153.2664
153.3842
153.3842
153.4171
153.4171
153.5179
153.5179
153.5706
153.5706
153.6795
153.6795
153.8043
153.8043
153.8253
153.8378
153.8378
153.9298
153.9298
153.9688
153.9688
154.1087
154.1087
154.1216
154.1216
154.2068
154.2068
154.2095
154.2095
154.2122
154.2122
154.2171
154.2171
154.3035
154.3035
154.3135
154.3135
154.3681
154.3681
154.4125
154.4125
154.4193
154.4193
154.5377
154.5377
154.6217
154.6217
154.6428
154.6428
154.6981
154.6981
154.7254
154.7254
154.828
154.828
154.8583
154.8583
154.8754
154.8754
154.8974
154.8974
154.8981
154.8981
154.9013
154.9013
154.9369
154.9369
155.0246
155.0246
155.0634
155.0634
155.0634
155.0634
155.2676
155.2676
155.3041
155.3041
155.3576
155.3576
155.3835
155.3835
155.423
155.423
155.4761
155.4761
155.6335
155.6335
155.6725
155.6725
155.8755
155.8755
155.8842
155.8842
155.8851
155.8851
155.9307
155.9307
155.946
155.946
155.946
155.946
156.0392
156.0392
156.0782
156.0782
156.0988
156.0988
156.317
156.317
156.4133
156.4217
156.4217
156.4251
156.4251
156.4266
156.4266
156.5814
156.5814
156.5845
156.5845
156.6207
156.6207
156.7126
156.7126
156.7831
156.7831
156.7852
156.7852
156.8722
156.8722
157.0178
157.0178
157.0262
157.0262
157.3645
157.3645
157.5025
157.5025
157.5359
157.5359
157.5747
157.5747
157.6852
157.6852
157.7344
157.7344
157.735
157.735
157.7563
157.7563
157.7901
157.7901
157.8863
157.8863
157.9285
157.9285
158.0313
158.0313
158.1434
158.1434
158.1709
158.1709
158.1773
158.1773
158.2397
158.2397
158.2422
158.2422
158.2833
158.2833
158.3136
158.3136
158.3299
158.3299
158.3314
158.3314
158.3422
158.3422
158.3438
158.3438
158.4171
158.4171
158.481
158.481
158.5088
158.5088
158.6023
158.6023
158.7324
158.7324
158.7326
158.7326
158.7559
158.7559
158.8573
158.8573
158.8687
158.8687
159.1641
159.1641
159.2126
159.2126
159.3345
159.3345
159.4342
159.4342
159.4672
159.4672
159.5016
159.5016
159.676
159.676
159.7306
159.7306
159.7509
159.7509
159.8279
159.8279
159.8936
159.8936
159.9277
159.9277
160.0393
160.0393
160.0483
160.0483
160.0962
160.0962
160.181
160.181
160.2322
160.2322
160.3249
160.3249
160.3249
160.3249
160.3382
160.3382
160.3455
160.3455
160.3455
160.3455
160.4757
160.4757
160.5067
160.5067
160.5229
160.5229
160.5477
160.5477
160.6787
160.6787
160.7584
160.7584
160.9712
160.9712
160.9769
160.9769
161.2136
161.2136
161.3092
161.3092
161.3191
161.3191
161.3513
161.3513
161.3513
161.3513
161.4617
161.4617
161.4829
161.4829
161.5309
161.5309
161.5309
161.5309
161.6343
161.6343
161.6642
161.6642
161.7379
161.7379
161.7456
161.7456
162.0549
162.0549
162.1204
162.1204
162.1268
162.1268
162.1599
162.1599
162.3717
162.3717
162.4351
162.4351
162.4594
162.4594
162.4744
162.4744
162.7088
162.7088
162.7088
162.7088
162.7568
162.7568
162.786
162.786
162.9723
162.9723
163.1322
163.1322
163.153
163.153
163.1666
163.1666
163.1875
163.1875
163.213
163.213
163.2989
163.2989
163.3357
163.3357
163.3357
163.3357
163.354
163.354
163.374
163.374
163.4294
163.4294
163.5148
163.5148
163.5761
163.5761
163.6957
163.6957
163.8003
163.8003
163.9835
163.9835
164.0308
164.0308
164.1038
164.1038
164.1109
164.1109
164.115
164.115
164.1524
164.1524
164.2174
164.2174
164.2784
164.2784
164.2942
164.2942
164.4771
164.4771
164.6468
164.6468
164.6787
164.6787
164.7308
164.7308
164.7661
164.7661
164.7879
164.7879
164.8793
164.8793
164.8978
164.8978
165.0292
165.0292
165.0451
165.0451
165.0985
165.0985
165.2423
165.2423
165.2618
165.2618
165.314
165.314
165.3718
165.3718
165.4584
165.4584
165.5944
165.5944
165.7137
165.7137
165.7609
165.7609
165.8651
165.8651
165.9064
165.9064
166.3315
166.3315
166.3384
166.3384
166.3392
166.3392
166.3975
166.3975
166.4129
166.4129
166.4873
166.4873
166.5072
166.5072
166.5705
166.5705
166.661
166.661
166.764
166.764
166.8115
166.8115
167.085
167.085
167.179
167.179
167.1798
167.1798
167.3001
167.3001
167.3019
167.3019
167.3359
167.3359
167.361
167.361
167.5466
167.5466
167.6027
167.6027
167.723
167.723
167.8555
167.8555
167.8586
167.8586
168.0639
168.0639
168.0639
168.0639
168.1378
168.1378
168.2253
168.2253
168.2612
168.2612
168.3574
168.3574
168.39
168.39
168.394
168.394
168.413
168.413
168.4866
168.4866
168.6163
168.6163
168.7502
168.7502
168.7502
168.7502
168.7515
168.7515
168.7515
168.7515
168.772
168.772
169.0729
169.0729
169.128
169.128
169.1342
169.1342
169.3636
169.3636
169.3636
169.3636
169.3909
169.3909
169.3984
169.3984
169.4662
169.4662
169.6762
169.6762
169.7806
169.7806
169.7807
169.7807
169.7807
169.7807
169.8284
169.8284
169.8773
169.8773
169.9326
169.9326
169.9772
169.9772
169.9885
169.9885
170.0435
170.0435
170.0638
170.0638
170.1369
170.1369
170.1594
170.1594
170.2485
170.2485
170.2541
170.2541
170.2813
170.2813
170.3252
170.3252
170.3262
170.3262
170.3719
170.3719
170.398
170.398
170.4055
170.4055
170.4075
170.4075
170.4512
170.4512
170.5136
170.5136
170.5483
170.5483
170.8512
170.8512
170.9683
170.9683
171.0351
171.0351
171.0428
171.0428
171.2173
171.2173
171.2173
171.2173
171.3035
171.3035
171.4185
171.4185
171.5042
171.5042
171.6629
171.6629
171.8334
171.8334
171.8415
171.8415
171.9162
171.9162
172.0033
172.0921
172.0921
172.1015
172.1015
172.1887
172.1887
172.2698
172.2698
172.3399
172.3399
172.3514
172.3514
172.3581
172.3581
172.3877
172.3877
172.4111
172.4111
172.448
172.448
172.5078
172.5078
172.5475
172.5475
172.5733
172.5733
172.607
172.607
172.6899
172.6899
172.7506
172.7506
172.8068
172.8068
172.8383
172.8383
172.8758
172.8758
172.9513
172.9513
173.0352
173.0352
173.2394
173.2394
173.241
173.241
173.4728
173.6788
173.6788
173.6823
173.6823
173.6912
173.6912
173.8172
173.8172
173.8633
173.8633
173.9236
173.9236
173.9959
173.9959
173.9959
173.9959
174.0741
174.0741
174.3562
174.3967
174.3967
174.5735
174.5735
174.6892
174.6892
174.7955
174.7955
174.853
174.853
174.8961
174.8961
175.0074
175.0074
175.0136
175.0136
175.0837
175.0837
175.1021
175.1021
175.1062
175.1062
175.1062
175.1062
175.1468
175.1468
175.2034
175.2034
175.5068
175.5068
175.6058
175.6058
175.6728
175.6728
175.7681
175.7681
175.8221
175.8221
175.8904
175.8904
176.0014
176.0375
176.0375
176.0684
176.0684
176.0698
176.0698
176.0879
176.0879
176.3436
176.3436
176.3436
176.3436
176.3907
176.3907
176.3907
176.3907
176.5623
176.5623
176.563
176.563
176.6709
176.6709
176.7508
176.7508
176.7508
176.7508
176.7848
176.7848
176.8826
176.8826
176.8826
176.8826
176.8974
176.8974
176.9413
176.9413
176.9667
176.9667
177.0075
177.0075
177.0199
177.0199
177.0989
177.0989
177.1032
177.1032
177.1376
177.1376
177.2203
177.2203
177.2924
177.2924
177.3059
177.3059
177.4046
177.4046
177.4769
177.4769
177.5079
177.5079
177.589
177.589
177.6469
177.6469
177.7141
177.7539
177.7539
177.7689
177.7689
177.7689
177.7689
177.9123
177.9123
177.9406
177.9406
177.9669
177.9669
177.9741
177.9741
177.9792
177.9792
178.0173
178.0173
178.204
178.204
178.301
178.301
178.3522
178.3522
178.3589
178.3589
178.4125
178.4125
178.4295
178.4295
178.4721
178.4721
178.5283
178.5283
178.5304
178.5304
178.5746
178.5746
178.6424
178.6424
178.7627
178.7627
178.7988
178.7988
178.8556
178.8556
178.9108
178.9108
178.9398
178.9398
178.9766
178.9766
179.0731
179.0731
179.343
179.343
179.3855
179.3855
179.4208
179.4208
179.4512
179.4512
179.5081
179.5081
179.5329
179.5329
179.5329
179.5329
179.9679
179.9679
180.1255
180.1255
180.176
180.189
180.189
180.2753
180.2753
180.3924
180.3924
180.4069
180.4069
180.5166
180.5166
180.5699
180.5699
180.575
180.575
180.5804
180.5804
180.6273
180.6273
180.6362
180.6362
180.6362
180.6362
180.9459
180.9459
180.9832
180.9832
181.0645
181.0645
181.1133
181.1133
181.1854
181.1854
181.2803
181.2803
181.3107
181.3107
181.3169
181.3169
181.4337
181.4337
181.4995
181.4995
181.5512
181.5512
181.5732
181.5732
181.7465
181.7465
181.7465
181.7465
181.8297
181.8297
181.8379
181.8379
182.1035
182.1035
182.1962
182.1962
182.4978
182.4978
182.587
182.587
182.674
182.674
182.7003
182.7003
182.7003
182.7003
182.932
182.932
183.0027
183.0027
183.0787
183.0787
183.1712
183.1712
183.1889
183.1889
183.2815
183.2815
183.2815
183.2815
183.5311
183.5311
183.5503
183.5503
183.6703
183.6703
183.6913
183.6913
183.6953
183.6953
183.6953
183.6953
183.7435
183.7435
183.8157
183.8157
183.8265
183.8265
183.8265
183.8265
183.9043
183.9043
183.9233
183.9233
184.0039
184.0039
184.0225
184.0225
184.0565
184.0565
184.0645
184.0645
184.0679
184.0679
184.0679
184.0679
184.1618
184.1618
184.2427
184.2427
184.3267
184.3267
184.35
184.35
184.3627
184.3627
184.3697
184.3697
184.501
184.501
184.5328
184.5328
184.5399
184.5399
184.5421
184.5421
184.5422
184.5422
184.5828
184.5828
184.5979
184.5979
184.6374
184.6374
184.6971
184.6971
184.7575
184.7575
184.8225
184.8225
184.9959
184.9959
185.0204
185.0204
185.0586
185.0586
185.3153
185.3153
185.4046
185.4046
185.4046
185.4046
185.452
185.452
185.515
185.515
185.5439
185.5439
185.6666
185.6666
185.8176
185.8176
185.8768
185.8768
185.9063
185.9063
186.2083
186.2083
186.2638
186.2638
186.286
186.286
186.286
186.286
186.2896
186.2896
186.292
186.292
186.3126
186.3126
186.3202
186.3202
186.4485
186.4485
186.4541
186.4541
186.5099
186.5099
186.6675
186.6675
186.7512
186.7512
186.8007
186.8007
186.8029
186.8029
186.8352
186.8352
186.9008
186.9008
186.9586
186.9586
187.0113
187.0113
187.0113
187.0113
187.0172
187.0172
187.0321
187.0321
187.1414
187.1414
187.205
187.205
187.2117
187.2117
187.2117
187.2117
187.258
187.258
187.5251
187.5251
187.5418
187.5418
187.5949
187.5949
187.7273
187.7273
187.7814
187.7814
187.8913
187.8913
187.9131
187.9131
188.035
188.035
188.391
188.391
188.5718
188.5718
188.6227
188.6227
188.7151
188.7151
188.7567
188.7567
188.757
188.757
188.9316
188.9316
189.1088
189.1088
189.1817
189.1817
189.257
189.257
189.3105
189.3105
189.3105
189.3105
189.3621
189.3621
189.4672
189.4672
189.5136
189.5136
189.5998
189.5998
189.7025
189.7025
189.7074
189.7074
189.7491
189.7491
189.7818
189.7818
189.808
189.808
189.8383
189.8383
189.8406
189.8406
189.8468
189.8468
189.8902
189.8902
189.8946
189.8946
189.9379
189.9379
190.0805
190.0805
190.1027
190.1027
190.1672
190.1672
190.2573
190.2573
190.3337
190.3337
190.425
190.425
190.5032
190.5032
190.5096
190.5096
190.5344
190.5344
190.5396
190.5396
190.5396
190.5396
190.7294
190.7294
190.7347
190.7347
190.869
190.869
190.9334
190.9334
190.9986
190.9986
191.0264
191.0264
191.1078
191.1078
191.2077
191.2077
191.2738
191.2738
191.6732
191.6732
191.7327
191.7327
191.7486
191.7486
191.7844
191.7844
191.7992
191.7992
191.8817
191.8817
191.9304
191.9304
191.9447
191.9447
192.0383
192.0383
192.0885
192.0885
192.1156
192.1156
192.1711
192.1711
192.1769
192.1769
192.3032
192.3032
192.4838
192.4838
192.5149
192.5149
192.5827
192.5827
192.7653
192.7653
192.797
192.797
192.8998
192.8998
192.9035
192.9035
192.9721
192.9721
193.0143
193.0143
193.109
193.109
193.1398
193.1398
193.1398
193.1398
193.2176
193.2176
193.2406
193.2406
193.2672
193.2944
193.2944
193.2993
193.2993
193.3801
193.3801
193.4799
193.4799
193.5224
193.5224
193.5329
193.5329
193.5329
193.5329
193.5695
193.5695
193.5985
193.5985
193.6929
193.6929
193.7882
193.7882
193.8991
193.8991
194.0163
194.0163
194.1347
194.1347
194.1347
194.1347
194.152
194.152
194.2405
194.2405
194.2935
194.2935
194.3284
194.3284
194.7189
194.7189
194.7443
194.7443
194.7998
194.7998
194.8795
194.8795
195.0175
195.0175
195.1225
195.1225
195.2416
195.2416
195.2764
195.2764
195.3139
195.3139
195.3298
195.3298
195.3298
195.3298
195.3358
195.3358
195.3457
195.3457
195.3846
195.3846
195.4272
195.4272
195.4663
195.4663
195.5108
195.5108
195.5395
195.5395
195.6321
195.6321
195.6321
195.6321
195.7046
195.7046
195.7047
195.7047
195.7637
195.7637
195.8966
195.8966
195.921
195.921
195.921
195.921
196.0285
196.0285
196.1783
196.1783
196.5597
196.5597
196.6337
196.6337
196.6752
196.6752
196.7459
196.7459
196.7459
196.7459
196.7476
196.7476
196.9185
196.9185
196.9744
196.9744
197.2317
197.2317
197.4356
197.4356
197.5021
197.5021
197.5169
197.5169
197.666
197.666
197.7756
197.7756
197.7761
197.7761
197.7898
197.7898
197.8674
197.8674
197.9516
197.9516
198.065
198.065
198.065
198.065
198.1433
198.1433
198.2463
198.2463
198.3823
198.3823
198.5121
198.5121
198.5703
198.5703
198.5826
198.5826
198.704
198.704
198.704
198.704
198.7298
198.7298
198.7815
198.7815
198.8024
198.8024
198.8504
198.8504
198.9431
198.9431
199.0187
199.0187
199.1501
199.1501
199.1764
199.1764
199.1975
199.1975
199.4226
199.4226
199.4549
199.4549
199.5383
199.5383
199.6656
199.6656
199.8009
199.8009
199.8756
199.8756
200.0943
200.0943
200.2616
200.2616
200.2718
200.2718
200.358
200.358
200.3593
200.3593
200.3593
200.3593
200.4132
200.4132
200.547
200.547
200.6952
200.6952
200.7016
200.7016
200.718
200.718
200.8244
200.8244
200.9038
200.9038
200.93
200.9707
200.9707
201.197
201.197
201.2415
201.2415
201.2445
201.2445
201.2903
201.2903
201.3517
201.3517
201.3848
201.3848
201.4034
201.4034
201.6515
201.6515
201.7174
201.7174
201.7678
201.7678
202.1603
202.1603
202.1962
202.1962
202.3353
202.3353
202.3682
202.3682
202.4747
202.4747
202.4754
202.4754
202.5075
202.5075
202.54
202.54
202.5933
202.5933
202.7699
202.7699
202.999
202.999
203.0844
203.0844
203.2316
203.2316
203.3273
203.3273
203.3428
203.3428
203.4714
203.4714
203.4985
203.4985
203.5188
203.5188
203.5874
203.5874
203.6623
203.6623
203.6754
203.6754
203.7851
203.7851
204.0147
204.0147
204.086
204.086
204.3451
204.3451
204.35
204.35
204.38
204.38
204.6297
204.6297
204.6297
204.6297
204.7183
204.7183
204.9493
204.9493
204.9956
204.9956
205.032
205.032
205.032
205.032
205.1255
205.1255
205.1814
205.1814
205.3178
205.3178
205.6105
205.6105
205.6727
205.6727
205.7613
205.7613
205.7613
205.7613
206.211
206.211
206.2594
206.2594
206.3465
206.3465
206.3817
206.3817
206.4858
206.4858
206.5352
206.5352
206.6951
206.6951
206.6963
206.6963
206.7059
206.7059
206.7799
206.7799
207.1156
207.1156
207.1246
207.1246
207.1435
207.1435
207.2352
207.2352
207.3355
207.3355
207.5988
207.5988
207.618
207.618
207.6602
207.6602
207.6833
207.6833
207.7221
207.7221
207.9101
207.9101
207.9101
207.9101
208.0143
208.0143
208.0927
208.0927
208.0958
208.0958
208.3572
208.3572
208.4823
208.4823
208.5661
208.5661
208.6509
208.8111
208.8111
208.831
208.831
208.831
208.831
209.0308
209.0308
209.0379
209.0379
209.1565
209.1565
209.3491
209.3491
209.7621
209.7621
209.8254
209.8254
209.9472
209.9472
210.2574
210.2574
210.2574
210.2574
210.3156
210.3156
210.3196
210.3196
210.3285
210.3285
210.5987
210.5987
210.5993
210.5993
211.0081
211.0081
211.0208
211.0208
211.1231
211.1231
211.1747
211.1747
211.4631
211.4631
211.6674
211.6674
212.1789
212.1789
212.3933
212.3933
212.4309
212.4309
212.5123
212.5123
212.5598
212.5598
212.8391
212.8391
213.0204
213.0204
213.2377
213.2377
213.8083
213.8083
213.8149
213.8149
213.8441
213.8441
213.8636
213.8636
213.8996
213.8996
213.9124
213.9124
214.0547
214.0547
214.0755
214.0755
214.4252
214.4252
214.4333
214.4333
214.9328
214.9328
214.9598
214.9598
214.9679
214.9679
215.2609
215.2609
215.3281
215.3281
215.3335
215.3335
215.3499
215.3499
215.3994
215.3994
215.408
215.408
215.5696
215.5696
215.6215
215.6215
215.7133
215.7133
215.9126
215.9126
215.9204
215.9204
215.9372
215.9372
216.0695
216.0695
216.1351
216.1351
216.1772
216.1772
216.2606
216.2606
216.335
216.335
216.7938
216.7938
217.0922
217.0922
217.1273
217.1273
217.3223
217.3223
217.4045
217.4045
217.4986
217.4986
217.5268
217.5268
217.5296
217.5296
217.5296
217.5296
217.7467
217.7467
217.8188
217.8188
218.2117
218.2117
218.356
218.356
218.3803
218.3803
218.443
218.443
218.5303
218.5303
218.5848
218.5848
218.7101
218.7101
218.9655
218.9655
219.2067
219.2067
219.4311
219.4311
219.4627
219.4627
219.4937
219.4937
219.518
219.518
219.5536
219.5536
219.6666
219.6666
219.8515
219.8515
219.8681
219.8681
219.8996
219.8996
219.9253
219.9253
220.0348
220.0348
220.0664
220.0664
220.1214
220.1214
220.2403
220.2403
220.3128
220.3128
220.3208
220.3208
220.4389
220.4389
220.4871
220.4871
220.5008
220.5008
220.6089
220.6089
220.6202
220.6202
220.6576
220.6576
220.7793
220.7793
220.7953
220.7953
220.8144
220.8144
220.8504
220.8504
220.8653
220.8653
221.1001
221.1001
221.135
221.135
221.135
221.135
221.2792
221.2792
221.3029
221.3029
221.3575
221.3575
221.5171
221.5171
221.6025
221.6025
221.6025
221.6025
221.6684
221.6684
221.746
221.7996
221.7996
221.7996
221.7996
221.8073
221.8073
221.9186
221.9186
221.9691
221.9691
221.9773
221.9773
222.0002
222.0002
222.0077
222.0077
222.0719
222.0719
222.2297
222.2297
222.3324
222.3324
222.3568
222.3568
222.4471
222.4471
222.4595
222.4595
222.4621
222.4621
222.4621
222.4621
222.4732
222.4732
222.5148
222.5148
222.5392
222.5392
222.6586
222.6586
222.7893
222.7893
222.8522
222.8522
222.9689
222.9689
223.1342
223.1342
223.1635
223.1635
223.3268
223.3268
223.5702
223.5702
223.7919
223.7919
223.9587
223.9587
223.9751
223.9751
224.027
224.027
224.1116
224.1116
224.2899
224.2899
224.351
224.3568
224.3568
224.6127
224.6127
224.6601
224.6601
224.7868
224.7868
225.0288
225.0288
225.0288
225.0288
225.0725
225.0725
225.4145
225.4145
225.4162
225.4162
225.6347
225.6347
225.8929
225.8929
225.9464
225.9464
225.993
225.993
226.1132
226.1132
226.222
226.222
226.2585
226.2585
226.3862
226.3862
226.4889
226.4889
226.5563
226.5563
226.7231
226.7231
226.7362
226.7362
226.737
226.737
226.9813
226.9813
227.0118
227.0118
227.0383
227.0383
227.0893
227.0893
227.1008
227.1008
227.3613
227.3613
227.529
227.529
227.5823
227.5823
227.6121
227.6247
227.6247
227.667
227.667
227.8409
227.8409
227.8419
227.8419
227.9605
227.9605
228.0104
228.0104
228.0308
228.0308
228.1589
228.1589
228.2401
228.2401
228.4051
228.4051
228.4714
228.4714
228.545
228.545
228.545
228.545
228.609
228.609
228.6181
228.6181
228.6181
228.6181
228.8689
228.8689
228.9069
228.9069
229.0185
229.0185
229.0185
229.0185
229.0195
229.0195
229.0529
229.0529
229.0593
229.0593
229.137
229.137
229.2057
229.2057
229.3708
229.3708
229.3831
229.3831
229.388
229.388
229.4096
229.4096
229.4653
229.4653
229.4739
229.4739
229.4808
229.4808
229.4843
229.4843
229.5435
229.5435
229.5566
229.5566
229.6165
229.6165
229.7613
229.7613
229.8134
229.8134
229.8547
229.8547
229.8841
229.8841
229.9021
229.9021
229.9664
229.9664
230.0606
230.0606
230.3257
230.3257
230.444
230.444
230.6646
230.6646
230.9251
230.9251
230.9767
230.9767
231.0293
231.0293
231.0294
231.0294
231.0809
231.0809
231.0835
231.0835
231.1165
231.1165
231.1406
231.1406
231.1453
231.1453
231.1473
231.1473
231.1473
231.1473
231.1485
231.1485
231.2058
231.2058
231.3379
231.3379
231.4418
231.4418
231.4495
231.4495
231.5431
231.5431
231.6822
231.6822
231.7433
231.7433
231.7481
231.7481
231.8598
231.8598
231.8942
231.8942
231.949
231.949
231.9687
231.9687
231.9951
231.9951
232.1611
232.1611
232.183
232.183
232.2147
232.2147
232.3771
232.3771
232.4664
232.5685
232.5685
232.5956
232.5956
232.7391
232.7391
232.8184
232.8184
232.8989
232.8989
232.9868
232.9868
233.0055
233.0055
233.1236
233.1236
233.2557
233.2557
233.2557
233.2557
233.2679
233.2679
233.3529
233.3529
233.4031
233.4031
233.5055
233.5055
233.54
233.54
233.7338
233.7338
233.7478
233.7478
233.7949
233.7949
233.8099
233.8099
233.8197
233.8197
233.8591
233.8591
234.0956
234.0956
234.169
234.169
234.3168
234.3168
234.3555
234.3555
234.3653
234.3653
234.506
234.506
234.5424
234.5424
234.5553
234.5553
234.696
234.696
234.7401
234.7401
234.7601
234.7601
235.0001
235.0001
235.2173
235.2173
235.2317
235.2317
235.2373
235.2373
235.5173
235.5173
235.5926
235.5926
235.6987
235.6987
235.7574
235.7574
235.8041
235.8041
235.9812
235.9812
236.0244
236.0244
236.077
236.077
236.225
236.225
236.2839
236.2839
236.2846
236.3058
236.3058
236.3493
236.3493
236.6111
236.7426
236.7426
236.7699
236.7699
236.7699
236.7699
237.0192
237.0192
237.2267
237.2267
237.329
237.329
237.4233
237.4233
237.5163
237.5163
237.5272
237.5272
237.6508
237.6508
237.8285
237.8285
237.9187
237.9187
237.9685
237.9685
237.9962
237.9962
238.06
238.06
238.0968
238.0968
238.1012
238.1012
238.3273
238.3273
238.3787
238.3787
238.385
238.385
238.385
238.385
238.4388
238.4388
238.4439
238.4439
238.51
238.51
238.6102
238.6102
238.6196
238.6196
238.7413
238.7413
238.7445
238.7445
238.7451
238.7451
238.9459
238.9459
239.0058
239.0058
239.0058
239.0058
239.6105
239.6105
239.9178
239.9178
240.0222
240.0222
240.0296
240.0296
240.085
240.085
240.1769
240.1769
240.1901
240.1901
240.3753
240.3753
240.4854
240.4854
240.5377
240.5377
240.5606
240.5606
240.5606
240.5606
240.5815
240.5815
240.6385
240.6385
240.7482
240.7482
240.8621
240.8621
240.9815
240.9815
241.1086
241.1086
241.1755
241.1755
241.3244
241.3244
241.6204
241.6204
241.6524
241.6524
241.6524
241.6524
241.8082
241.8082
241.8082
241.8082
241.9745
241.9745
241.9824
241.9824
242.2532
242.2532
242.4071
242.4071
242.5219
242.5219
242.8693
242.8693
243.0855
243.0855
243.4225
243.4225
243.431
243.431
243.431
243.431
243.5145
243.5145
243.5145
243.5145
243.6906
243.6906
243.7002
243.7002
243.8844
243.8844
243.8858
243.8858
243.9456
243.9456
243.9892
243.9892
243.9892
243.9892
244.0363
244.0363
244.0363
244.0363
244.4543
244.4543
244.5492
244.5492
244.5527
244.5527
244.5704
244.5704
244.656
244.656
244.8038
244.8038
244.8531
244.8531
244.8728
244.8728
244.9073
244.9073
245.1194
245.1194
245.209
245.209
245.403
245.403
245.4473
245.4473
245.5017
245.5017
245.5017
245.5017
245.7441
245.7441
245.7826
245.7826
245.8342
245.8342
245.8342
245.8342
245.8981
245.8981
245.9674
245.9674
246.0214
246.0214
246.1901
246.1901
246.2211
246.2211
246.2956
246.2956
246.409
246.409
246.4145
246.4145
246.4912
246.4912
246.5102
246.5102
246.585
246.585
246.709
246.709
247.0058
247.0058
247.105
247.105
247.1151
247.1151
247.1706
247.1706
247.2229
247.2229
247.3004
247.3004
247.6844
247.6844
247.8509
247.8509
248.0179
248.0179
248.0641
248.0641
248.1348
248.1348
248.2409
248.2409
248.2409
248.2409
248.3249
248.3249
248.4869
248.4869
248.7106
248.7106
248.7889
248.7889
248.9338
248.9338
248.9539
248.9539
249.0868
249.0868
249.1569
249.1569
249.2013
249.2013
249.3601
249.3601
249.3665
249.3665
249.7271
249.7271
249.7279
249.7279
249.7793
249.7793
250.2031
250.2031
250.2924
250.2924
250.5034
250.5034
250.6383
250.6383
250.7467
250.7467
250.9294
250.9294
250.9708
250.9708
251.3111
251.3111
251.494
251.494
251.9145
251.9145
252.1035
252.1035
252.1035
252.1035
252.4401
252.4401
252.4658
252.4658
252.5546
252.5546
252.8987
252.8987
252.934
252.934
253.0425
253.0425
253.4631
253.4631
253.5036
253.5036
253.7321
253.7321
253.9655
253.9655
253.9827
253.9827
254.2969
254.2969
254.5908
254.5908
254.6379
254.6379
255.4994
255.4994
255.5368
255.5368
255.5753
255.5753
255.8233
255.8233
255.8588
255.8588
255.8768
255.8768
255.9384
255.9384
256.1725
256.1725
256.5345
256.5345
256.8321
256.8321
256.874
256.874
256.8851
256.8851
257.0381
257.0381
257.2193
257.2193
257.3177
257.3177
257.3512
257.3512
257.3848
257.3848
257.8833
257.8833
257.904
257.904
258.0408
258.0408
258.2023
258.2023
258.4446
258.4446
258.4639
258.4639
258.5898
258.5898
258.6198
258.6198
258.7774
258.7774
258.8517
258.8517
258.8969
258.8969
258.9898
258.9898
258.9904
258.9904
259.2928
259.2928
259.4575
259.4575
259.4771
259.4771
259.4946
259.4946
259.6947
259.6947
260.428
260.428
260.4541
260.4541
260.7031
260.7031
260.7399
260.7399
260.7399
260.7399
261.0026
261.0026
261.2976
261.2976
261.6353
261.6353
262.1468
262.1468
262.3421
262.3421
262.639
262.639
263.3404
263.3404
263.5296
263.5296
263.5974
263.5974
263.7882
263.7882
263.8021
263.8021
264.1608
264.1608
264.2169
264.4817
264.4817
264.7825
264.7825
264.7825
264.7825
265.2298
265.2298
265.4063
265.4063
265.5071
265.5071
265.6714
265.6714
266.129
266.129
266.3705
266.3705
266.7261
266.7261
266.8451
266.9011
267.5453
267.5453
267.7311
267.7311
267.8939
267.8939
268.8456
268.8456
268.9203
268.9203
269.9925
269.9925
270.0285
270.0285
270.5378
270.5378
270.6827
270.6827
271.4183
271.4183
271.601
271.601
271.7042
271.7042
271.7042
271.7042
271.8074
271.8074
271.8759
271.8759
272.5952
272.5952
272.6718
272.6718
272.6809
272.6809
273.6085
273.6085
273.6695
273.6695
273.9288
273.9288
274.4437
274.4437
274.6444
274.6444
274.6444
274.6444
275.1357
275.1357
275.5447
275.5447
275.5621
275.5621
275.7845
275.7845
276.1615
276.1615
276.5422
276.5422
276.5982
276.5982
276.8819
276.8819
277.2166
277.2166
277.2266
277.2266
277.262
277.262
277.6783
277.6783
278.1495
278.1495
278.3101
278.3101
278.3519
278.3519
278.3519
278.3519
278.6481
278.6481
278.6713
278.6713
278.7378
278.7378
279.0551
279.0551
279.1883
279.1883
279.216
279.216
279.2455
279.2455
279.2455
279.2455
279.2803
279.2803
279.3747
279.4793
279.4793
279.7123
279.7123
279.7892
279.7892
279.7907
279.7907
279.7922
279.7922
279.7922
279.7922
279.9631
279.9631
280.0034
280.0034
280.0541
280.0541
280.0763
280.0763
280.1724
280.1724
280.2595
280.2595
280.3463
280.3463
280.3885
280.3885
280.4072
280.4072
280.4133
280.4133
280.507
280.507
280.5177
280.5177
280.5294
280.5294
280.5809
280.5809
280.6021
280.6021
280.6147
280.6147
281.0142
281.0142
281.0292
281.0294
281.0294
281.0315
281.0315
281.0606
281.0606
281.3675
281.3675
281.405
281.405
281.4936
281.4936
281.5393
281.5393
281.6208
281.6208
281.6329
281.6329
281.6393
281.6393
281.6696
281.6696
281.6871
281.6871
281.7726
281.7726
281.776
281.776
281.8122
281.8122
281.8231
281.8231
281.8378
281.8378
282.0568
282.0568
282.112
282.112
282.1367
282.1367
282.1367
282.1367
282.1508
282.1508
282.1508
282.1508
282.2232
282.2232
282.3082
282.3082
282.333
282.333
282.374
282.374
282.374
282.374
282.3904
282.3904
282.3904
282.3904
282.3938
282.3938
282.4139
282.4139
282.4385
282.4385
282.4393
282.4393
282.4609
282.4609
282.466
282.466
282.6037
282.6037
282.6207
282.6207
282.7048
282.7048
282.7853
282.7853
282.8356
282.8356
282.8522
282.8522
282.9525
282.9525
283.0804
283.0804
283.092
283.092
283.1718
283.1718
283.3989
283.3989
283.4688
283.4688
283.488
283.488
283.5461
283.5461
283.5806
283.5806
283.5922
283.5922
283.6142
283.6142
283.6166
283.6166
283.72
283.72
283.7208
283.7208
283.7224
283.7224
283.8868
283.8868
283.9917
283.9917
284.241
284.241
284.2958
284.2958
284.354
284.354
284.354
284.354
284.3562
284.3562
284.4569
284.4569
284.479
284.479
284.6526
284.6526
284.6713
284.6713
284.7355
284.7355
284.744
284.744
284.7791
284.7791
284.7791
284.7791
284.7974
284.7974
284.7974
284.7974
284.82
284.82
284.9228
284.9228
284.9286
284.9286
284.951
284.951
285.0328
285.0328
285.0348
285.0348
285.213
285.213
285.2887
285.2887
285.2971
285.2971
285.2993
285.2993
285.3606
285.3606
285.5348
285.5348
285.8153
285.8153
285.8787
285.8787
285.8992
285.8992
285.9207
285.9207
286.1071
286.1071
286.169
286.169
286.1831
286.1831
286.2668
286.2668
286.4507
286.4507
286.4684
286.4684
286.4703
286.4703
286.5255
286.5255
286.7707
286.7707
286.8288
286.8288
286.8424
286.8424
286.9125
286.9125
286.9125
286.9125
286.9218
286.9218
286.9936
286.9936
287.054
287.054
287.1168
287.1168
287.3634
287.3634
287.4125
287.4125
287.4314
287.4314
287.619
287.619
287.6898
287.6898
287.7772
287.7772
287.8285
287.8285
287.8307
287.8307
287.9105
287.9105
287.9143
287.9143
287.9631
287.9631
288.021
288.021
288.0358
288.0358
288.0899
288.0899
288.2066
288.2066
288.2097
288.2097
288.219
288.219
288.2712
288.2712
288.3284
288.3593
288.3593
288.586
288.586
288.6494
288.6494
288.7658
288.7658
288.7682
288.7682
288.7867
288.7867
288.9735
288.9735
288.9861
288.9861
289.1603
289.1603
289.1939
289.1939
289.1945
289.1945
289.2304
289.2304
289.4535
289.4535
289.4908
289.4908
289.5527
289.5527
289.6239
289.6239
289.867
289.867
289.899
289.899
289.9241
289.9241
289.9853
289.9853
290.026
290.026
290.1351
290.1351
290.1857
290.1857
290.1926
290.1926
290.1937
290.1937
290.2913
290.2913
290.2978
290.2978
290.3657
290.3657
290.3824
290.3824
290.4099
290.4099
290.4962
290.4962
290.5869
290.5869
290.5917
290.5917
290.7037
290.7037
290.7421
290.7421
290.7421
290.7421
290.7946
290.7946
290.8937
290.8937
290.898
290.898
290.9356
290.9356
290.965
290.965
290.9816
290.9816
291.0119
291.0119
291.0119
291.0119
291.0708
291.0708
291.0968
291.0968
291.1182
291.1182
291.1972
291.1972
291.2313
291.2313
291.2625
291.2625
291.2883
291.2883
291.3363
291.3363
291.3793
291.3793
291.381
291.381
291.451
291.451
291.4888
291.4888
291.5648
291.5648
291.5675
291.5675
291.5904
291.5904
291.5967
291.5967
291.7161
291.7161
291.7274
291.7274
291.7863
291.7863
291.7863
291.7863
291.845
291.845
291.8521
291.8521
291.8535
291.8535
291.8837
291.8837
291.8848
291.8848
292.0028
292.0028
292.156
292.156
292.2489
292.2489
292.2619
292.2619
292.2798
292.2798
292.3392
292.3392
292.358
292.358
292.4113
292.4113
292.4138
292.4138
292.5331
292.5331
292.5405
292.5405
292.5975
292.5975
292.637
292.637
292.671
292.671
292.7104
292.7104
292.753
292.753
292.7592
292.7592
292.774
292.7836
292.851
292.851
292.9657
292.9657
292.988
292.988
293.012
293.012
293.0473
293.0473
293.0532
293.0532
293.0749
293.0749
293.0884
293.0884
293.1221
293.1221
293.1229
293.1229
293.2227
293.2227
293.2237
293.2237
293.266
293.266
293.2669
293.2669
293.2791
293.2791
293.3019
293.3019
293.3911
293.3911
293.3915
293.3915
293.3915
293.3915
293.4944
293.4944
293.513
293.513
293.5721
293.5721
293.5846
293.5846
293.5932
293.5932
293.6419
293.6419
293.6513
293.6513
293.7051
293.7272
293.7272
293.7824
293.7824
293.7932
293.7932
293.8608
293.8608
293.8798
293.8798
293.9938
293.9938
294.0144
294.0144
294.0271
294.0271
294.0432
294.0432
294.0683
294.0683
294.0741
294.0741
294.102
294.102
294.1176
294.1176
294.1181
294.1181
294.1181
294.1181
294.1298
294.1298
294.1558
294.1558
294.1922
294.1922
294.1983
294.1983
294.2225
294.2225
294.2225
294.2225
294.3215
294.3215
294.3748
294.4202
294.4202
294.4202
294.4202
294.5383
294.5383
294.564
294.564
294.5642
294.5642
294.5817
294.5817
294.5904
294.5904
294.6727
294.7311
294.7311
294.7944
294.7944
294.7977
294.7977
294.8147
294.8147
294.8181
294.8181
294.8517
294.8517
294.8763
294.893
294.893
294.9937
294.9937
295.0607
295.0607
295.1317
295.1317
295.1834
295.1834
295.2089
295.2089
295.2175
295.2175
295.2206
295.2206
295.2823
295.2823
295.2904
295.2904
295.3619
295.3619
295.3899
295.3899
295.4598
295.4598
295.48
295.48
295.5444
295.5444
295.5444
295.5444
295.66
295.66
295.7185
295.7185
295.7624
295.7624
295.7913
295.7913
295.8078
295.8078
295.8904
295.8904
295.9062
295.9062
295.948
295.948
296.1791
296.1791
296.2171
296.2171
296.2251
296.2251
296.249
296.249
296.2723
296.2723
296.2723
296.2723
296.3243
296.3243
296.5381
296.5381
296.5463
296.5463
296.5623
296.5623
296.5821
296.5821
296.6678
296.6678
296.6747
296.6747
296.7955
296.7955
296.8153
296.8153
296.8361
296.8361
296.8634
296.8634
296.9011
296.9011
296.9682
296.9682
297.0064
297.0064
297.0207
297.0207
297.1206
297.1206
297.1724
297.1724
297.1921
297.1921
297.1992
297.1992
297.377
297.6888
297.6888
297.6888
297.6888
297.7492
297.7492
297.751
297.751
297.765
297.765
297.7972
297.7972
297.8749
297.8749
298.038
298.038
298.1892
298.1892
298.3574
298.3574
298.372
298.372
298.4022
298.4022
298.4853
298.4853
298.6425
298.6425
298.712
298.712
298.7529
298.7529
298.761
298.761
298.9405
298.9405
298.9516
298.9516
299.0138
299.0138
299.1311
299.1311
299.1788
299.1788
299.1788
299.1788
299.3305
299.3305
299.3453
299.3453
299.3957
299.3957
299.4391
299.4391
299.4987
299.4987
299.5696
299.5696
299.5696
299.5696
299.6718
299.6718
299.7331
299.7331
299.742
299.742
299.8108
299.8108
299.8315
299.8315
299.8315
299.8315
299.8872
299.8872
299.9134
299.9134
299.948
299.948
299.9681
299.9681
300.0046
300.0046
300.0378
300.0378
300.0441
300.0441
300.0441
300.0441
300.0856
300.0856
300.1594
300.1594
300.2641
300.2641
300.4449
300.4449
300.454
300.454
300.4717
300.4717
300.6567
300.6567
300.679
300.679
300.697
300.697
300.9114
300.9114
300.9527
300.9527
300.9929
300.9929
301.0177
301.0177
301.1776
301.1776
301.2495
301.2495
301.3057
301.3057
301.3166
301.3166
301.3206
301.3206
301.3296
301.3296
301.4409
301.4409
301.4938
301.4938
301.5654
301.5654
301.5921
301.5921
301.6541
301.6541
301.7332
301.7332
301.8441
301.8441
301.867
301.867
301.9622
301.9622
301.9899
301.9899
302.2201
302.2201
302.2466
302.2466
302.3271
302.3271
302.3465
302.3465
302.3527
302.3527
302.6528
302.6528
302.7265
302.7265
302.7487
302.7487
302.7487
302.7487
302.7755
302.7755
302.8048
302.8048
302.8133
302.8133
302.8197
302.8197
302.9633
302.9633
303.0417
303.0417
303.0936
303.0936
303.1033
303.1033
303.1241
303.1241
303.1501
303.1501
303.2305
303.2305
303.3273
303.3273
303.3388
303.3388
303.3501
303.3501
303.3683
303.3683
303.4366
303.4366
303.5007
303.5007
303.6608
303.6608
303.6646
303.6646
303.6897
303.6897
303.6903
303.6903
303.6978
303.6978
303.8017
303.8017
303.9638
303.9638
303.9659
303.9659
303.9928
303.9928
304.0283
304.0283
304.1078
304.1078
304.1208
304.1208
304.1724
304.1724
304.202
304.202
304.2365
304.2365
304.2691
304.2691
304.3573
304.3573
304.443
304.443
304.4882
304.4882
304.4882
304.4882
304.4986
304.4986
304.5481
304.5481
304.5934
304.5934
304.6107
304.6107
304.6843
304.6843
304.6843
304.6843
304.6865
304.6865
304.7245
304.7245
304.725
304.725
304.767
304.8205
304.8205
304.8571
304.8571
304.9106
304.9106
305.0452
305.0452
305.0452
305.0452
305.0923
305.0923
305.122
305.122
305.1301
305.1301
305.1331
305.1331
305.1698
305.1698
305.2382
305.3291
305.3291
305.3649
305.3649
305.6177
305.6177
305.6177
305.6177
305.7623
305.7623
305.7858
305.7858
305.8204
305.8204
305.9421
305.9421
306.0874
306.0874
306.0874
306.0874
306.1774
306.1774
306.2042
306.2042
306.2232
306.2232
306.2515
306.2515
306.2577
306.2577
306.2817
306.2817
306.4364
306.4364
306.4364
306.4364
306.5314
306.5314
306.5815
306.5815
306.6729
306.6729
306.7151
306.7151
306.7295
306.7295
306.9634
306.9634
307.0512
307.0512
307.0582
307.0582
307.2185
307.2185
307.2517
307.2517
307.2625
307.2625
307.2897
307.2897
307.2978
307.2978
307.4019
307.4019
307.5342
307.5342
307.5363
307.5363
307.5646
307.5646
307.5938
307.5938
307.7085
307.7085
307.7268
307.7268
307.8304
307.8304
307.8433
307.8433
307.8668
307.8668
308.0232
308.0232
308.0274
308.0274
308.0602
308.0602
308.0765
308.0765
308.1395
308.1395
308.2156
308.2156
308.3167
308.3167
308.3167
308.3167
308.3244
308.3244
308.354
308.354
308.3604
308.3604
308.3661
308.3661
308.3812
308.3812
308.4015
308.4015
308.4016
308.4016
308.4212
308.4212
308.4212
308.4212
308.4487
308.4487
308.4504
308.4504
308.4893
308.4893
308.5871
308.5871
308.6174
308.6174
308.65
308.65
308.7949
308.7949
308.8916
308.8916
308.9807
308.9807
308.9807
308.9807
309.0422
309.0422
309.0974
309.0974
309.0974
309.0974
309.1106
309.1106
309.1472
309.1472
309.1673
309.1673
309.1715
309.1715
309.2056
309.2056
309.2543
309.2543
309.257
309.257
309.2896
309.2896
309.423
309.423
309.4233
309.4233
309.5752
309.5752
309.5855
309.5855
309.5943
309.5943
309.6015
309.6015
309.6495
309.6495
309.6495
309.6495
309.6586
309.6586
309.6881
309.6881
309.6927
309.6927
309.7329
309.7329
309.7404
309.7404
309.7682
309.7682
309.7854
309.7854
309.8018
309.8018
309.8018
309.8018
309.825
309.825
309.8517
309.8517
309.8574
309.8574
309.9835
309.9835
310.0033
310.0033
310.0379
310.0379
310.0393
310.0393
310.0877
310.0877
310.1106
310.1106
310.1227
310.1227
310.1804
310.1804
310.1981
310.1981
310.2203
310.2203
310.3032
310.3032
310.3219
310.3219
310.3539
310.3539
310.3601
310.3601
310.4147
310.4147
310.5005
310.5005
310.5057
310.5057
310.5297
310.5297
310.6071
310.6071
310.6204
310.6204
310.6204
310.6204
310.6483
310.6483
310.6572
310.6572
310.6642
310.6642
310.7012
310.7012
310.7143
310.7403
310.7403
310.7403
310.7403
310.7571
310.7571
310.7614
310.7614
310.763
310.763
310.8117
310.8117
310.8699
310.8699
310.8811
310.8811
311.0142
311.0142
311.1409
311.1409
311.1674
311.1674
311.1939
311.1939
311.1939
311.1939
311.2115
311.2115
311.2298
311.2298
311.2422
311.2422
311.2422
311.2422
311.2956
311.2956
311.3711
311.3711
311.4784
311.4784
311.502
311.502
311.5445
311.5445
311.5518
311.5518
311.5954
311.5954
311.6036
311.6036
311.8014
311.8014
311.8139
311.8139
311.8339
311.8339
311.9073
311.9073
311.996
311.996
311.996
311.996
312.0544
312.0544
312.0595
312.0595
312.0966
312.0966
312.1737
312.1737
312.216
312.216
312.2644
312.2644
312.2923
312.2923
312.351
312.351
312.3926
312.3926
312.4
312.4
312.415
312.415
312.4757
312.4757
312.5156
312.5156
312.5518
312.5518
312.558
312.558
312.5805
312.5805
312.5813
312.5813
312.6085
312.6085
312.6146
312.6146
312.6176
312.6176
312.6343
312.6343
312.6571
312.6571
312.6571
312.6571
312.6604
312.6604
312.6938
312.6938
312.7726
312.7726
312.7785
312.7785
312.8933
312.8933
312.9031
312.9031
312.9477
312.9477
312.9756
312.9756
312.9916
312.9916
312.9942
312.9942
312.9976
312.9976
312.9976
312.9976
313.0183
313.0183
313.0527
313.0527
313.0848
313.0848
313.0873
313.0873
313.1142
313.1142
313.1462
313.1462
313.1756
313.1756
313.1756
313.1756
313.2536
313.2536
313.3947
313.3947
313.3994
313.3994
313.4035
313.4035
313.4521
313.4521
313.4709
313.4709
313.4786
313.4786
313.5535
313.5535
313.6741
313.6741
313.6789
313.6873
313.6873
313.7527
313.7527
313.819
313.819
313.8494
313.8494
313.8494
313.8494
313.8616
313.8616
313.9064
313.9064
313.9077
313.9077
314.0448
314.0448
314.0857
314.0857
314.1531
314.1531
314.1664
314.1664
314.2358
314.2358
314.2387
314.2387
314.3055
314.3055
314.3697
314.3697
314.5034
314.5034
314.5098
314.5098
314.5236
314.5236
314.5733
314.5733
314.5733
314.5733
314.574
314.574
314.6009
314.6009
314.6532
314.6532
314.6632
314.6632
314.6934
314.6934
314.7202
314.7202
314.7744
314.7744
314.7983
314.7983
314.8185
314.8185
314.8414
314.8414
314.9399
314.9399
314.9511
314.9511
314.9648
314.9648
315.0125
315.0125
315.0212
315.0212
315.1835
315.1835
315.25
315.25
315.2647
315.2647
315.2914
315.2914
315.2928
315.2928
315.3028
315.3028
315.3382
315.3382
315.3475
315.3475
315.4235
315.4235
315.43
315.43
315.4435
315.4435
315.5029
315.5029
315.5479
315.5479
315.5499
315.5499
315.5565
315.5565
315.5776
315.5776
315.5874
315.5874
315.7022
315.7022
315.7221
315.7221
315.7868
315.7868
315.7903
315.7903
315.8686
315.8686
315.8715
315.8715
315.8746
315.8746
315.8948
315.8948
315.8962
315.8962
315.9278
315.9278
315.9598
315.9598
315.9771
315.9771
315.9959
315.9959
316.0442
316.0442
316.0479
316.0479
316.0995
316.0995
316.1094
316.1234
316.1234
316.1356
316.1356
316.156
316.156
316.1635
316.1635
316.1649
316.1649
316.2471
316.2471
316.2631
316.2631
316.2631
316.2631
316.2903
316.2903
316.2966
316.2966
316.3052
316.3052
316.3247
316.3247
316.3266
316.3266
316.3355
316.3355
316.3695
316.3695
316.3981
316.3981
316.4159
316.4159
316.4489
316.4489
316.4503
316.4503
316.4503
316.4503
316.4921
316.4921
316.4967
316.4967
316.54
316.54
316.5745
316.5745
316.5912
316.5912
316.6453
316.6453
316.6974
316.6974
316.6974
316.6974
316.709
316.709
316.7357
316.7357
316.7363
316.7363
316.7493
316.7493
316.7493
316.7493
316.7528
316.7528
316.7693
316.7693
316.7759
316.7759
316.7963
316.7963
316.8353
316.8353
316.8557
316.8557
316.8557
316.8557
316.8721
316.8721
317.0177
317.0177
317.0454
317.0454
317.1045
317.1045
317.1232
317.1232
317.1232
317.1232
317.1785
317.1785
317.191
317.191
317.2182
317.2182
317.2395
317.2395
317.2452
317.2452
317.2613
317.2613
317.2941
317.2941
317.3437
317.3437
317.3465
317.3465
317.3479
317.3479
317.402
317.402
317.4375
317.4375
317.4854
317.4854
317.5039
317.5039
317.507
317.507
317.5648
317.5648
317.5658
317.5658
317.5956
317.5956
317.6388
317.6388
317.6477
317.6477
317.6673
317.6673
317.6805
317.6805
317.703
317.703
317.7966
317.7966
317.8266
317.8266
317.8322
317.8322
317.8712
317.8712
317.8791
317.8791
317.9121
317.9121
317.9304
317.9304
317.9713
317.9713
317.9907
317.9907
318.0493
318.0493
318.0561
318.0561
318.0561
318.0561
318.1966
318.1966
318.2271
318.2271
318.2768
318.2768
318.3832
318.3832
318.4616
318.4616
318.541
318.541
318.5511
318.5511
318.6605
318.6605
318.6765
318.6765
318.6765
318.6765
318.7334
318.7334
318.7578
318.7578
318.7578
318.7578
318.8221
318.8221
318.8645
318.8645
318.9558
318.9558
319.0073
319.0073
319.0084
319.0084
319.0487
319.0487
319.0634
319.0634
319.0835
319.0835
319.121
319.121
319.1737
319.1737
319.1994
319.2589
319.2589
319.2932
319.2932
319.2934
319.2934
319.2934
319.2934
319.2982
319.2982
319.4401
319.4401
319.504
319.504
319.5613
319.5613
319.6196
319.6196
319.6196
319.6196
319.7107
319.7107
319.7168
319.7168
319.7662
319.7662
319.7745
319.7745
319.8023
319.8023
319.8317
319.8317
319.8503
319.8503
319.8631
319.8631
319.9388
319.9388
319.9567
319.9567
319.9698
319.9698
320.0002
320.0002
320.0756
320.0756
320.0976
320.0976
320.1924
320.1924
320.2072
320.2072
320.2702
320.2702
320.2716
320.2716
320.2927
320.2927
320.3273
320.3273
320.3838
320.3838
320.4492
320.4492
320.4678
320.4678
320.5038
320.5038
320.5363
320.5363
320.5397
320.5397
320.5397
320.5397
320.7485
320.7485
320.7898
320.8672
320.8672
320.8705
320.8705
320.8889
320.9333
320.9333
321.0297
321.0297
321.0707
321.0707
321.1235
321.1235
321.1429
321.1429
321.2105
321.2105
321.2149
321.2149
321.2368
321.2368
321.2526
321.2526
321.3102
321.3102
321.3909
321.3909
321.4299
321.4299
321.4751
321.4751
321.4751
321.4751
321.4958
321.4958
321.6029
321.6029
321.6569
321.6569
321.728
321.728
321.7503
321.7503
321.7696
321.7696
321.8905
321.8905
321.9156
321.9156
321.9949
321.9949
322.0124
322.0124
322.0588
322.0588
322.0662
322.0662
322.1166
322.1166
322.1172
322.1172
322.1493
322.1493
322.1973
322.1973
322.2046
322.2046
322.2214
322.2214
322.2926
322.2926
322.3322
322.3322
322.3433
322.3433
322.4399
322.4399
322.4549
322.4549
322.4588
322.4588
322.5536
322.5536
322.5853
322.5853
322.6258
322.6258
322.7163
322.7163
322.7223
322.7223
322.7572
322.7572
322.7882
322.7882
322.8663
322.8663
322.8779
322.8779
322.9136
322.9136
322.9136
322.9136
322.9173
322.9173
322.9487
322.9487
322.9487
322.9487
323.0163
323.0163
323.0389
323.0389
323.0779
323.0779
323.1138
323.1138
323.177
323.177
323.308
323.308
323.3808
323.3808
323.4328
323.4328
323.4774
323.4774
323.5028
323.5492
323.5492
323.6495
323.6495
323.6801
323.6801
323.6932
323.6932
323.7016
323.7016
323.7053
323.7053
323.7623
323.7623
323.7639
323.7639
323.824
323.824
323.8262
323.8262
323.8312
323.8312
323.8529
323.8529
323.8735
323.8735
323.889
323.889
323.9173
323.9173
323.9173
323.9173
323.9218
323.9218
323.9995
323.9995
324.0435
324.0435
324.0725
324.0725
324.0725
324.0725
324.0834
324.0834
324.0984
324.0984
324.1048
324.1073
324.1073
324.1289
324.1289
324.1676
324.1676
324.1953
324.1953
324.2328
324.2328
324.3252
324.3252
324.3399
324.3399
324.3544
324.3544
324.386
324.386
324.386
324.386
324.4082
324.4082
324.4263
324.4263
324.4866
324.4866
324.499
324.499
324.5166
324.5166
324.5642
324.5642
324.6326
324.6326
324.6631
324.6631
324.6914
324.6914
324.7328
324.7328
324.7454
324.7454
324.7813
324.7813
324.9164
324.9164
324.9206
324.9206
324.941
324.941
324.947
324.947
325.0013
325.0013
325.0653
325.0653
325.0665
325.0665
325.1352
325.1352
325.1505
325.1505
325.2148
325.2148
325.2741
325.2741
325.3391
325.3391
325.3404
325.3404
325.3789
325.3789
325.4795
325.4795
325.5338
325.5338
325.5436
325.5436
325.5452
325.5452
325.7657
325.7657
325.7803
325.7803
325.8041
325.8041
325.8376
325.8376
325.9334
325.9334
325.9412
325.9412
326.1064
326.1064
326.1543
326.1543
326.1946
326.1946
326.2389
326.2389
326.2428
326.2428
326.248
326.248
326.2644
326.2644
326.4317
326.4317
326.7529
326.7529
327.0277
327.0277
327.1043
327.1043
327.1043
327.1043
327.1051
327.1051
327.2306
327.2306
327.2719
327.2719
327.3187
327.3187
327.3565
327.3565
327.4456
327.4456
327.5027
327.5027
327.6677
327.6677
327.7664
327.7664
327.7878
327.7878
327.9154
327.9154
327.9393
327.9393
327.9857
327.9857
328.0588
328.0588
328.1606
328.1606
328.168
328.168
328.168
328.168
328.2573
328.2573
328.3231
328.3231
328.3916
328.3916
328.431
328.431
328.5166
328.5166
328.5857
328.5857
328.6811
328.6811
328.6811
328.6811
328.8331
328.8331
328.844
328.844
329.1417
329.1417
329.2349
329.2349
329.3232
329.3232
329.4391
329.4391
329.4697
329.4697
329.593
329.593
329.6085
329.6085
329.6498
329.6498
329.6923
329.6923
329.7055
329.7055
329.7483
329.7483
329.9454
329.9454
329.96
329.96
329.96
329.96
329.9873
329.9873
330.0364
330.0364
330.0835
330.0835
330.2178
330.2178
330.2563
330.2563
330.3913
330.3913
330.4535
330.4535
330.5649
330.5649
330.7077
330.7077
330.7929
330.7929
330.9253
330.9253
331.0515
331.0515
331.1334
331.1334
331.3942
331.3942
331.4375
331.4375
331.4574
331.4574
331.4753
331.4753
331.4784
331.4784
331.7175
331.7175
331.7924
331.7924
332.0071
332.0071
332.146
332.146
332.7077
332.7077
332.7956
332.7956
332.927
332.927
332.9795
332.9795
333.0744
333.0744
333.1184
333.1184
333.1943
333.1943
333.2819
333.4511
333.4511
333.4971
333.4971
333.5698
333.5698
333.6324
333.6324
333.7696
333.7696
333.8199
333.8199
333.8731
333.8731
334.0091
334.0091
334.2875
334.2875
334.4131
334.4131
334.6587
334.6587
335.1257
335.1257
335.3566
335.3566
335.4535
335.4535
335.4631
335.4631
335.6345
335.6345
335.7532
335.7532
336.0212
336.0212
336.3598
336.3598
336.4097
336.4097
336.4097
336.4097
336.4104
336.4104
337.3572
337.3572
337.3572
337.3572
337.6146
337.6146
337.6356
337.6356
337.6356
337.6356
337.6491
337.6491
337.8079
337.8079
337.9469
337.9469
337.9762
337.9762
338.2447
338.2447
338.2447
338.2447
338.5615
338.5615
338.5615
338.5615
338.6252
338.6252
338.696
338.696
338.7762
338.7762
339.2849
339.2849
339.5301
339.5301
339.9416
339.9416
339.9526
339.9526
339.9912
339.9912
340.2358
340.2358
340.9347
340.9347
340.9556
340.9556
341.0589
341.0589
341.2194
341.2194
341.3146
341.3146
341.4313
341.4313
341.5521
341.5521
341.6516
341.6516
341.7075
341.7075
342.1505
342.1505
342.6134
342.6134
342.6204
342.6204
342.7726
342.7726
343.1997
343.1997
343.3931
343.3931
343.5812
343.5812
343.717
343.717
343.8084
343.8084
343.9252
343.9252
344.2392
344.2392
344.5217
344.5217
345.0601
345.0601
345.2585
345.2585
345.4682
345.4682
345.7091
345.7091
345.7439
345.7439
346.1165
346.1165
346.1846
346.1846
346.3155
346.3155
346.4755
346.4755
346.6511
346.6511
346.7821
346.7821
346.9722
346.9722
347.2163
347.2163
347.444
347.444
347.6042
347.6042
347.9861
347.9861
348.3985
348.3985
348.4422
348.4422
348.4471
348.4471
348.9271
348.9271
348.9271
348.9271
349.1903
349.1903
349.2022
349.2022
350.0263
350.0263
350.1637
350.1637
351.2316
351.2316
351.4701
351.4701
351.958
351.958
351.9704
351.9704
352.6608
352.6608
352.9224
352.9224
353.0491
353.0491
353.4364
353.4364
353.6075
353.6075
353.6938
353.6938
354.1681
354.1681
355.8466
355.8466
355.8751
355.8751
355.8964
355.8964
355.8964
355.8964
355.8996
355.8996
357.117
357.117
357.1597
357.1597
358.5237
358.5237
358.5257
358.5257
358.7525
358.7525
358.8704
358.8704
359.3155
359.3155
359.8726
359.8726
359.884
359.884
360.1129
360.1129
361.0688
361.0688
361.7776
361.7776
362.2327
362.2327
362.9839
362.9839
363.9007
363.9007
365.6816
365.6816
367.3557
367.3557
367.9787
367.9787
368.4544
368.4544
368.4544
368.4544
369.3051
369.3051
370.9638
370.9638
371.8524
371.8524
372.3949
372.3949
375.272
375.272
376.1439
376.1439
376.4483
376.4483
381.7708
381.7708
382.1847
382.1847
383.6742
383.6742
385.1571
385.1571
392.8649
392.8649
667.9823
667.9823
669.8902
670.4116
670.4116
671.1726
671.1726
671.6705
671.6705
672.8006
672.8006
673.0428
673.0428
673.0977
673.0977
673.1015
673.1015
673.881
673.881
674.1348
674.1348
674.288
674.288
674.3739
674.3739
674.5373
674.5373
674.5403
674.5403
674.6922
674.6922
674.7028
674.7028
674.7981
674.7981
674.8222
674.9491
674.9491
674.9513
674.9513
674.9583
674.9583
675.0375
675.0375
675.1626
675.1626
675.1894
675.1894
675.2834
675.2834
675.308
675.308
675.3176
675.3176
675.3696
675.3696
675.3962
675.3962
675.5289
675.5289
675.5764
675.5764
675.5764
675.5764
675.5922
675.5922
675.5992
675.5992
675.6252
675.6252
675.6825
675.6825
675.6929
675.6929
675.7423
675.7423
675.8404
675.8404
675.871
675.871
675.8986
675.8986
675.9466
675.9466
675.954
675.954
675.9675
675.9675
675.9954
675.9954
676.013
676.013
676.0153
676.0153
676.0274
676.0274
676.0277
676.0277
676.1328
676.1328
676.1519
676.1519
676.2184
676.2184
676.2549
676.2549
676.2551
676.2551
676.261
676.261
676.2613
676.2613
676.2706
676.2706
676.2739
676.2739
676.2991
676.2991
676.3026
676.3026
676.3278
676.3278
676.365
676.365
676.4423
676.4423
676.45
676.45
676.4544
676.4544
676.4719
676.4719
676.4874
676.4874
676.4876
676.4876
676.4918
676.4918
676.5111
676.5111
676.5357
676.5357
676.5501
676.5501
676.5501
676.5501
676.5573
676.5573
676.5665
676.5665
676.5689
676.5689
676.5767
676.5767
676.6294
676.6294
676.7148
676.7148
676.726
676.726
676.7347
676.7347
676.7908
676.7908
676.8076
676.8076
676.8125
676.8125
676.8125
676.8125
676.8229
676.8229
676.8425
676.8425
676.8675
676.8675
676.9252
676.9252
676.9356
676.9356
676.9385
676.9385
676.9597
676.9597
676.971
676.971
676.971
676.971
676.9921
676.9921
677.0023
677.0023
677.0245
677.0245
677.032
677.032
677.0354
677.0354
677.0526
677.0526
677.0566
677.0566
677.059
677.0676
677.0676
677.072
677.072
677.1347
677.1347
677.1375
677.1375
677.1457
677.1457
677.1463
677.1463
677.1507
677.1507
677.1576
677.1576
677.1854
677.1854
677.1949
677.1949
677.1975
677.1975
677.2224
677.2224
677.2547
677.2547
677.2655
677.2655
677.266
677.266
677.268
677.268
677.2715
677.2715
677.2874
677.3033
677.3033
677.3163
677.3163
677.3294
677.3294
677.3294
677.3294
677.3322
677.3322
677.3404
677.3404
677.3773
677.3773
677.3863
677.3863
677.3871
677.3871
677.401
677.401
677.4411
677.4411
677.4611
677.4611
677.4767
677.4767
677.4964
677.4964
677.511
677.511
677.5258
677.5258
677.5534
677.5534
677.5653
677.5653
677.5713
677.5713
677.5716
677.5716
677.5937
677.5937
677.6008
677.6008
677.6008
677.6008
677.607
677.607
677.6077
677.6077
677.6143
677.6143
677.6173
677.6173
677.6248
677.6248
677.6258
677.6258
677.6466
677.6466
677.6481
677.6481
677.6678
677.6678
677.6845
677.6845
677.7005
677.7005
677.714
677.714
677.7911
677.7911
677.7939
677.7939
677.8282
677.8282
677.8472
677.8472
677.8683
677.8683
677.8683
677.8683
677.8848
677.8848
677.8876
677.8876
677.9028
677.9028
677.9028
677.9028
677.9157
677.9157
677.9163
677.9163
677.9418
677.9418
677.9425
677.9425
677.9425
677.9425
677.9454
677.9454
677.9546
677.9546
677.9847
677.9847
677.9914
677.9914
678.0041
678.0041
678.0041
678.0041
678.0315
678.0315
678.0527
678.0527
678.0527
678.0527
678.0692
678.0692
678.0858
678.0858
678.1134
678.1134
678.1206
678.1206
678.1363
678.1496
678.1496
678.1516
678.1516
678.1526
678.1526
678.1718
678.1718
678.1751
678.1751
678.1792
678.1792
678.1792
678.1792
678.1975
678.1975
678.2084
678.2084
678.2162
678.2162
678.2197
678.2197
678.232
678.232
678.2446
678.2446
678.261
678.261
678.2713
678.2713
678.2717
678.2717
678.2908
678.2908
678.3038
678.3038
678.3193
678.3193
678.3193
678.3193
678.3217
678.3217
678.3247
678.3247
678.3247
678.3247
678.326
678.326
678.3326
678.3326
678.429
678.429
678.4548
678.4548
678.5268
678.5268
678.5274
678.5274
678.5274
678.5274
678.5307
678.5307
678.5349
678.5349
678.5368
678.5368
678.5376
678.5376
678.54
678.54
678.5538
678.5538
678.5599
678.5599
678.5686
678.5686
678.5705
678.5705
678.5749
678.5749
678.5841
678.5841
678.5934
678.5934
678.5987
678.5987
678.6334
678.6334
678.6368
678.6368
678.6372
678.6372
678.6566
678.6566
678.6663
678.6663
678.6663
678.6663
678.6728
678.6728
678.6769
678.6769
678.6831
678.6831
678.6923
678.6923
678.7171
678.7171
678.7339
678.7339
678.742
678.7869
678.7869
678.7937
678.7937
678.8049
678.8049
678.8141
678.8141
678.8199
678.8199
678.8207
678.8207
678.8368
678.8368
678.8645
678.8645
678.8713
678.8713
678.8862
678.8862
678.8862
678.8862
678.8946
678.8946
678.8946
678.8946
678.9021
678.9021
678.9133
678.9133
678.9151
678.9151
678.9284
678.9284
678.935
678.935
678.9419
678.9419
678.9674
678.9674
678.9782
678.9782
678.9944
678.9944
678.9972
678.9972
679.0135
679.0135
679.0254
679.0254
679.0288
679.0288
679.0301
679.0301
679.0338
679.0338
679.0659
679.0659
679.0659
679.0659
679.1053
679.1053
679.1062
679.1062
679.1126
679.1126
679.1172
679.1172
679.1439
679.1439
679.1465
679.1465
679.1483
679.1483
679.2104
679.2104
679.2104
679.2104
679.2178
679.2178
679.2241
679.2241
679.2279
679.2279
679.2412
679.2412
679.2412
679.2412
679.2611
679.2611
679.2768
679.2768
679.2986
679.2986
679.3042
679.3042
679.3298
679.3298
679.3412
679.3412
679.3854
679.3854
679.3868
679.3868
679.3868
679.3868
679.4009
679.4009
679.4111
679.4111
679.4228
679.4228
679.4294
679.4294
679.4313
679.4313
679.4316
679.4316
679.4345
679.4345
679.4395
679.4395
679.4685
679.4685
679.4696
679.4696
679.5141
679.5141
679.529
679.529
679.5707
679.5707
679.5707
679.5707
679.5743
679.5743
679.5992
679.5992
679.6382
679.6382
679.7167
679.7167
679.724
679.724
679.8658
679.8658
679.8961
679.8961
679.9093
679.9093
679.9472
679.9472
679.9644
679.9644
679.9842
679.9842
679.989
679.989
680.0025
680.0025
680.0031
680.0031
680.0423
680.0423
680.0423
680.0423
680.0661
680.0661
680.1506
680.1506
680.168
680.168
680.1802
680.1802
680.2043
680.2043
680.2047
680.2047
680.2446
680.2446
680.2571
680.2571
680.2661
680.2661
680.2802
680.2802
680.2854
680.2854
680.295
680.295
680.2964
680.2964
680.3533
680.3533
680.4011
680.4011
680.4123
680.4123
680.4123
680.4123
680.424
680.424
680.4567
680.4567
680.4651
680.4651
680.4723
680.4723
680.4805
680.4805
680.5229
680.5229
680.5385
680.5385
680.5445
680.5445
680.5668
680.5668
680.5909
680.5909
680.6026
680.6026
680.6829
680.6829
680.6829
680.6829
680.7688
680.7688
680.769
680.769
680.7738
680.7738
680.7871
680.7871
680.792
680.792
680.8717
680.8717
680.943
680.943
681.0259
681.0259
681.1035
681.1035
681.1055
681.1055
681.1132
681.1132
681.1177
681.1177
681.1833
681.1833
681.1933
681.1933
681.2249
681.2249
681.2477
681.2477
681.3467
681.3467
681.3541
681.3541
681.3735
681.3735
681.4155
681.4155
681.4196
681.4196
681.4366
681.4366
681.4521
681.4521
681.4666
681.4666
681.4715
681.4715
681.472
681.472
681.4732
681.4732
681.4818
681.4818
681.5188
681.5188
681.5371
681.5371
681.5486
681.5486
681.6034
681.6034
681.6192
681.6192
681.6443
681.6443
681.7084
681.7084
681.7129
681.7129
681.7423
681.7423
681.7477
681.7477
681.8273
681.8273
681.8365
681.8365
681.8493
681.8493
681.948
681.948
681.9615
681.9615
681.9838
681.9838
681.9842
681.9842
682.0332
682.0332
682.0775
682.0775
682.097
682.097
682.1046
682.1046
682.137
682.137
682.146
682.146
682.1499
682.1499
682.1513
682.1513
682.1574
682.1574
682.1839
682.1839
682.2077
682.2077
682.2156
682.2156
682.2273
682.2273
682.2273
682.2273
682.2557
682.2557
682.287
682.287
682.287
682.287
682.2901
682.2901
682.2964
682.2964
682.3009
682.3009
682.3086
682.3086
682.3241
682.3241
682.3354
682.3354
682.3934
682.3934
682.4273
682.4273
682.4335
682.4335
682.4581
682.4581
682.4905
682.4905
682.4993
682.4993
682.5057
682.5057
682.5185
682.5185
682.52
682.52
682.52
682.52
682.5596
682.5596
682.5777
682.5777
682.596
682.596
682.5961
682.5961
682.6093
682.6093
682.6494
682.6494
682.6699
682.6699
682.6941
682.6941
682.7178
682.7178
682.7249
682.7249
682.7392
682.7392
682.7508
682.7508
682.7577
682.7577
682.7969
682.7969
682.8407
682.8407
682.8472
682.8472
682.8476
682.8476
682.854
682.854
682.8807
682.8807
682.9191
682.9191
682.927
682.927
682.9307
682.9307
682.9329
682.9329
682.9602
682.9602
682.9653
682.9653
682.9854
682.9854
682.994
682.994
683.006
683.006
683.006
683.006
683.0103
683.0103
683.023
683.023
683.0408
683.0408
683.0547
683.0547
683.0653
683.0653
683.0834
683.0834
683.0838
683.0838
683.0877
683.0877
683.1106
683.1106
683.1106
683.1106
683.18
683.18
683.2231
683.2231
683.2414
683.2414
683.2453
683.2453
683.2507
683.2507
683.2507
683.2507
683.2781
683.2781
683.2781
683.2781
683.2843
683.2843
683.3014
683.3014
683.3237
683.3237
683.4389
683.4389
683.4623
683.4623
683.4739
683.4739
683.5186
683.5186
683.529
683.529
683.5354
683.5354
683.5403
683.5403
683.547
683.547
683.5528
683.5528
683.5655
683.5655
683.5705
683.5705
683.5804
683.5804
683.5872
683.5872
683.6051
683.6051
683.6051
683.6051
683.6301
683.6301
683.6421
683.6421
683.6446
683.6446
683.6701
683.6701
683.6866
683.6866
683.7155
683.7155
683.7566
683.7566
683.7566
683.7566
683.8274
683.8274
683.8303
683.8303
683.8337
683.8337
683.837
683.837
683.8489
683.8489
683.8833
683.8833
683.8845
683.8845
683.8852
683.8852
683.8899
683.8899
683.8923
683.8923
683.9092
683.9092
683.9099
683.9099
683.919
683.919
683.9266
683.9266
683.9278
683.9278
683.94
683.954
683.954
683.9729
683.9729
683.9731
683.9731
683.9785
683.9785
684.0082
684.0082
684.0098
684.0098
684.0222
684.0222
684.0365
684.0365
684.05
684.05
684.1156
684.1156
684.1519
684.1519
684.1579
684.1579
684.1772
684.1772
684.1801
684.1801
684.1997
684.1997
684.1999
684.1999
684.2222
684.2222
684.2445
684.2445
684.2498
684.2498
684.2499
684.2499
684.2512
684.2512
684.2578
684.2578
684.2668
684.2668
684.2985
684.2985
684.3096
684.3096
684.3241
684.3241
684.3279
684.3279
684.3347
684.3347
684.3421
684.3421
684.3558
684.3558
684.3677
684.3677
684.3738
684.3738
684.3756
684.4183
684.4183
684.4524
684.4524
684.4743
684.4743
684.4829
684.4829
684.5011
684.5011
684.5033
684.5033
684.5221
684.5221
684.5269
684.5269
684.5465
684.5465
684.5898
684.5898
684.6164
684.6164
684.626
684.626
684.6279
684.6279
684.6473
684.6473
684.6473
684.6473
684.6738
684.6738
684.6899
684.6899
684.6938
684.6938
684.6989
684.6989
684.7003
684.7003
684.7086
684.7086
684.7153
684.7153
684.7189
684.7189
684.7201
684.7201
684.7393
684.7393
684.7559
684.7559
684.7672
684.7672
684.7672
684.7672
684.77
684.77
684.8075
684.8075
684.8075
684.8075
684.8388
684.8388
684.8429
684.8429
684.8429
684.8429
684.8678
684.8678
684.8678
684.8678
684.9092
684.9092
684.9148
684.9148
684.9264
684.9264
684.9265
684.9265
684.9351
684.9351
684.9432
684.9432
684.9446
684.9446
684.9496
684.9496
684.9507
684.9507
684.9511
684.9511
684.9582
684.9582
684.9968
684.9968
685.0136
685.0136
685.0275
685.0275
685.0501
685.0501
685.0511
685.0511
685.0726
685.0726
685.0881
685.0881
685.1177
685.1177
685.1234
685.1234
685.1279
685.1279
685.1694
685.1694
685.181
685.181
685.2096
685.2096
685.2136
685.2136
685.2157
685.2157
685.2234
685.2234
685.2247
685.2247
685.2247
685.2247
685.23
685.23
685.2457
685.2457
685.2512
685.2512
685.2758
685.2758
685.2758
685.2758
685.3041
685.3041
685.3046
685.3046
685.3417
685.3417
685.3548
685.3548
685.3879
685.3879
685.389
685.389
685.4154
685.4154
685.4186
685.4186
685.4186
685.4186
685.422
685.422
685.4754
685.4754
685.5068
685.5068
685.5227
685.5227
685.5404
685.5404
685.5446
685.5446
685.5586
685.5586
685.561
685.561
685.5701
685.5701
685.5702
685.5702
685.5778
685.5778
685.5808
685.5808
685.5831
685.5831
685.5885
685.5885
685.5938
685.5938
685.6072
685.6072
685.6082
685.6082
685.6159
685.6159
685.6246
685.6246
685.6307
685.6307
685.6307
685.6307
685.6314
685.6314
685.6331
685.6331
685.6394
685.6394
685.6449
685.6449
685.6648
685.6648
685.6718
685.6718
685.6911
685.6911
685.694
685.694
685.6946
685.6946
685.6948
685.6948
685.6948
685.6948
685.7487
685.7487
685.7605
685.7605
685.7639
685.7639
685.7685
685.7685
685.7754
685.7754
685.7824
685.7824
685.7893
685.7893
685.8056
685.8056
685.8155
685.8155
685.8604
685.8604
685.865
685.865
685.8658
685.8658
685.8727
685.8727
685.8742
685.8742
685.9024
685.9024
685.9141
685.9141
685.9148
685.9148
685.9574
685.9574
685.9596
685.9596
685.9714
685.9714
685.9791
685.9791
685.9791
685.9791
685.9915
685.9915
685.9961
685.9961
685.9995
685.9995
686.0019
686.0019
686.0084
686.0084
686.0101
686.0191
686.0191
686.0764
686.0764
686.0943
686.0943
686.0995
686.0995
686.1063
686.1063
686.1291
686.1291
686.1378
686.1378
686.1405
686.1405
686.1628
686.1628
686.1628
686.1628
686.1631
686.1631
686.1731
686.1731
686.1985
686.1985
686.2265
686.2265
686.2265
686.2265
686.2391
686.2391
686.2501
686.2501
686.2549
686.2549
686.3031
686.3031
686.3106
686.3106
686.3117
686.3117
686.3193
686.3193
686.327
686.327
686.3458
686.3458
686.3667
686.3667
686.375
686.375
686.3807
686.3807
686.3942
686.3942
686.4013
686.4013
686.4053
686.4053
686.4165
686.4165
686.4219
686.4219
686.4219
686.4219
686.4803
686.4803
686.4817
686.4817
686.5216
686.5216
686.5268
686.5268
686.5424
686.5424
686.5457
686.5457
686.5973
686.5973
686.6074
686.6074
686.6309
686.6309
686.6408
686.6408
686.6671
686.6671
686.6671
686.6671
686.6681
686.6681
686.6729
686.6729
686.6735
686.6735
686.6739
686.6739
686.6742
686.6742
686.6777
686.6777
686.6806
686.6806
686.6939
686.6939
686.6961
686.6961
686.744
686.7591
686.7591
686.7591
686.7591
686.7726
686.7726
686.7864
686.7864
686.8329
686.8329
686.8627
686.8627
686.8645
686.8645
686.8784
686.8784
686.8829
686.8829
686.9271
686.9271
686.9271
686.9271
686.9331
686.9331
686.9562
686.9562
686.9639
686.9639
686.9698
686.9698
687.0041
687.0041
687.0284
687.0284
687.0532
687.0532
687.057
687.057
687.0619
687.0619
687.0815
687.0815
687.0839
687.0839
687.0879
687.0879
687.0964
687.0964
687.155
687.155
687.1747
687.1747
687.2186
687.2186
687.2227
687.2227
687.2939
687.2939
687.3186
687.3186
687.3233
687.3233
687.327
687.327
687.3316
687.3316
687.3674
687.3674
687.3701
687.3701
687.3726
687.3726
687.3838
687.3838
687.3954
687.3954
687.3992
687.3992
687.4015
687.4015
687.4094
687.4094
687.4238
687.4238
687.43
687.43
687.4343
687.4343
687.4412
687.4412
687.4497
687.4497
687.4548
687.4548
687.4562
687.4562
687.4683
687.4683
687.4749
687.4749
687.5026
687.5026
687.5036
687.5036
687.5276
687.5276
687.5327
687.5327
687.5797
687.5797
687.5866
687.5866
687.5929
687.5929
687.5929
687.5929
687.6305
687.6305
687.6404
687.6404
687.6635
687.6635
687.705
687.705
687.776
687.776
687.7869
687.7869
687.8027
687.8027
687.8027
687.8027
687.8774
687.8774
687.9196
687.9196
687.9335
687.9335
687.978
687.978
688.0013
688.0013
688.0201
688.0201
688.0471
688.0471
688.0508
688.0508
688.0517
688.0517
688.0543
688.0543
688.0989
688.0989
688.2236
688.2236
688.2516
688.2516
688.3783
688.3783
688.3952
688.3952
688.5338
688.5338
688.538
688.538
688.5639
688.5639
688.7277
688.7277
688.7344
688.7344
689.339
689.339
689.4518
689.5652
689.5652
689.5903
689.5903
689.7439
689.7439
689.8184
689.8184
689.8213
689.8213
689.9438
689.9625
689.9625
690.0408
690.0408
690.0779
690.0779
690.1543
690.1543
690.3709
690.3709
690.4229
690.4229
690.4451
690.4451
690.4787
690.4787
690.6657
690.6657
690.7291
690.7291
691.2336
691.2336
691.2845
691.2845
691.7986
691.7986
692.4004
692.4004
692.7756
692.7756
692.8323
692.8323
693.0645
693.0645
693.2292
693.2292
693.5337
693.5337
693.5796
693.5796
693.7031
693.7031
693.9381
693.9381
694.0174
694.0174
694.0896
694.0896
694.1144
694.1144
694.7748
694.7748
695.1276
695.1276
695.45
695.45
819.4539
819.725
819.725
820.2051
820.2051
820.2945
820.2945
820.4133
820.4133
820.4793
820.4793
820.5439
820.5439
820.6359
820.6359
820.7084
820.7084
820.7207
820.7207
820.7256
820.7256
820.7546
820.7546
820.79
820.79
820.8255
820.8255
820.8358
820.8358
820.8392
820.8392
820.8416
820.8416
820.8708
820.8708
820.9056
820.9056
820.9442
820.9442
821.0132
821.0132
821.0325
821.0325
821.0611
821.0611
821.0669
821.0669
821.1156
821.1156
821.1305
821.1315
821.1315
821.1403
821.1403
821.1528
821.1528
821.1555
821.1555
821.1613
821.1613
821.1711
821.1711
821.1792
821.1792
821.2058
821.2058
821.2064
821.2064
821.2158
821.2158
821.2158
821.2158
821.2183
821.2183
821.2498
821.2498
821.2501
821.2501
821.2585
821.2585
821.2621
821.2621
821.2657
821.2657
821.2685
821.2685
821.2764
821.2764
821.2764
821.2764
821.2764
821.2764
821.2796
821.2796
821.2951
821.2951
821.3012
821.3012
821.3143
821.3143
821.318
821.318
821.3251
821.3251
821.3282
821.3282
821.3295
821.3295
821.3361
821.3361
821.3417
821.3417
821.3442
821.3485
821.3485
821.3508
821.3673
821.3673
821.3867
821.3867
821.3899
821.3899
821.3899
821.3899
821.3955
821.3955
821.3965
821.3965
821.4022
821.4022
821.4108
821.4108
821.4249
821.4249
821.4357
821.4357
821.4467
821.4467
821.448
821.448
821.4509
821.4509
821.4585
821.4585
821.4604
821.4604
821.4638
821.4638
821.4735
821.4735
821.4788
821.4788
821.4814
821.4814
821.4836
821.4836
821.4867
821.4867
821.5046
821.5046
821.5064
821.5064
821.5114
821.5114
821.5166
821.5166
821.5217
821.5217
821.5303
821.5303
821.5315
821.5315
821.5336
821.5336
821.535
821.535
821.5625
821.5625
821.5645
821.5645
821.5754
821.5754
821.5813
821.5813
821.5958
821.5958
821.5959
821.5959
821.6057
821.6057
821.6142
821.6142
821.6359
821.6359
821.6414
821.6414
821.642
821.642
821.6421
821.6421
821.6466
821.6466
821.6496
821.6496
821.6542
821.6542
821.6604
821.6604
821.6613
821.6613
821.6613
821.6613
821.6708
821.6708
821.671
821.671
821.671
821.671
821.6718
821.6718
821.6783
821.6783
821.6783
821.6783
821.6902
821.6902
821.6935
821.6935
821.7001
821.7001
821.702
821.702
821.702
821.702
821.7032
821.7032
821.7034
821.7034
821.7118
821.7118
821.7118
821.7118
821.713
821.713
821.7141
821.7141
821.7228
821.7228
821.727
821.727
821.7355
821.7355
821.7355
821.7355
821.7364
821.7364
821.7487
821.7487
821.7585
821.7585
821.7631
821.7631
821.7786
821.7786
821.7826
821.7826
821.7848
821.7942
821.7942
821.7952
821.7952
821.7952
821.7952
821.7952
821.7952
821.7981
821.7981
821.8079
821.8079
821.8112
821.8112
821.8112
821.8112
821.816
821.816
821.8171
821.8171
821.8296
821.8296
821.8327
821.8327
821.8391
821.8391
821.8398
821.8398
821.8399
821.8399
821.8416
821.8416
821.8437
821.8437
821.8437
821.8437
821.8567
821.8567
821.8611
821.8611
821.862
821.862
821.8632
821.8632
821.8687
821.8687
821.8714
821.8714
821.8719
821.8739
821.8739
821.8743
821.8743
821.8768
821.8768
821.8789
821.8789
821.8803
821.8803
821.8806
821.8806
821.8816
821.8816
821.8847
821.8847
821.8851
821.8851
821.8998
821.8998
821.9141
821.9141
821.9217
821.9217
821.9411
821.9411
821.9426
821.9426
821.9481
821.9481
821.9573
821.9573
821.9581
821.9581
821.9646
821.9826
821.9826
821.9866
821.9866
821.9917
821.9917
821.9976
821.9976
821.998
821.998
821.9982
821.9982
821.9982
821.9982
822.0009
822.0009
822.0173
822.0173
822.0252
822.0252
822.0253
822.0253
822.0347
822.0347
822.0431
822.0431
822.0465
822.0465
822.0484
822.0484
822.051
822.051
822.0515
822.0515
822.0531
822.0531
822.0536
822.0536
822.0549
822.0549
822.0579
822.0579
822.0621
822.0621
822.0627
822.0627
822.0627
822.0627
822.0644
822.0644
822.0644
822.0644
822.0693
822.0693
822.0695
822.0695
822.075
822.075
822.0756
822.0756
822.0901
822.0901
822.0936
822.0936
822.0997
822.0997
822.1015
822.1015
822.1021
822.1021
822.1066
822.1066
822.1068
822.1068
822.1123
822.1123
822.1145
822.1145
822.1171
822.1171
822.1253
822.1253
822.1291
822.1291
822.1361
822.1361
822.1361
822.1361
822.1381
822.1381
822.1425
822.1425
822.1425
822.1425
822.1471
822.1471
822.1477
822.1477
822.1482
822.1482
822.1517
822.1517
822.1556
822.1556
822.1585
822.1585
822.1647
822.1647
822.1678
822.1678
822.1748
822.1748
822.1753
822.1753
822.1785
822.1785
822.1789
822.1789
822.185
822.185
822.1887
822.1887
822.1969
822.1969
822.1972
822.1972
822.2028
822.2028
822.2188
822.2188
822.2191
822.2191
822.2226
822.2226
822.2253
822.2253
822.2309
822.2309
822.2313
822.2313
822.2345
822.2345
822.2365
822.2365
822.2391
822.2391
822.2451
822.2451
822.2463
822.2463
822.2501
822.2501
822.2564
822.2564
822.2597
822.2597
822.2786
822.2786
822.2882
822.2882
822.3038
822.3038
822.3378
822.3378
822.3504
822.3504
822.3511
822.3511
822.3523
822.3523
822.3526
822.3526
822.3656
822.3656
822.3665
822.3665
822.3725
822.3725
822.3745
822.3745
822.3813
822.3813
822.3988
822.3988
822.3998
822.3998
822.404
822.404
822.4169
822.4169
822.4813
822.4813
822.4907
822.4907
822.4908
822.4908
822.4958
822.4958
822.4976
822.4976
822.4976
822.4976
822.4981
822.4981
822.4991
822.4991
822.4991
822.4991
822.4996
822.4996
822.5002
822.5002
822.5011
822.5011
822.5071
822.5071
822.5085
822.5085
822.5256
822.5256
822.5412
822.5412
822.5627
822.5627
822.5703
822.5703
822.5741
822.5741
822.5812
822.5812
822.596
822.596
822.597
822.597
822.6046
822.6046
822.6264
822.6264
822.6605
822.6605
822.6876
822.6876
822.6894
822.6894
822.6985
822.6985
822.7151
822.7151
822.7251
822.7251
822.7626
822.7626
822.7672
822.7672
822.7751
822.7751
822.7793
822.7793
822.7886
822.7886
822.7886
822.7886
822.7977
822.7977
822.8068
822.8068
822.8206
822.8206
822.8211
822.8211
822.8331
822.8331
822.8413
822.8413
822.8462
822.8462
822.8462
822.8462
822.85
822.85
822.8869
822.8869
822.8925
822.8925
822.8986
822.8986
822.9032
822.9032
822.9089
822.9089
822.9091
822.9091
822.9098
822.9098
822.9377
822.9377
822.9391
822.9391
822.9455
822.9455
822.9456
822.9456
822.9578
822.9578
822.9706
822.9706
822.9741
822.9741
822.9786
822.9786
822.9794
822.9794
822.9836
822.9836
822.9859
822.9859
823.0101
823.0101
823.0127
823.0127
823.018
823.018
823.0228
823.0247
823.0247
823.0321
823.0321
823.0373
823.0373
823.0399
823.0399
823.0466
823.0466
823.0466
823.0466
823.0563
823.0563
823.0572
823.0572
823.0739
823.0739
823.0873
823.0873
823.1206
823.1206
823.1325
823.1325
823.2066
823.2066
823.2711
823.2711
823.2859
823.2859
823.32
823.32
823.32
823.32
823.4037
823.4037
823.4117
823.4117
823.4538
823.4538
823.4725
823.4725
823.4725
823.4725
823.4851
823.4851
823.5122
823.5122
823.5516
823.5516
823.5516
823.5516
823.5582
823.5582
823.5878
823.5878
823.6142
823.6142
823.6452
823.6452
823.6452
823.6452
823.6557
823.6557
823.6697
823.6697
823.6761
823.6761
823.7246
823.7246
823.7752
823.7752
823.803
823.803
823.8874
823.8874
823.8997
823.8997
823.9286
823.9286
824.0158
824.0158
824.0594
824.0594
824.075
824.075
824.0789
824.0789
824.1004
824.1004
824.1053
824.1053
824.1621
824.1621
824.1893
824.1893
824.242
824.242
824.2453
824.2453
824.2541
824.2541
824.3007
824.3007
824.3422
824.3422
824.3685
824.3685
824.4662
824.4662
824.4811
824.4811
824.5774
824.5774
824.5917
824.5917
824.715
824.715
824.8834
824.8834
824.9242
824.9242
824.9595
824.9595
825.0431
825.0431
825.0675
825.0675
825.1283
825.1283
825.1629
825.1629
825.2337
825.2337
825.4515
825.4515
825.491
825.491
825.4944
825.4944
825.5207
825.5207
825.5809
825.5809
825.8056
825.8056
825.8838
825.8838
825.9233
825.9233
825.9368
825.9368
826.0607
826.0607
826.3631
826.3631
826.3943
826.3943
826.5609
826.5609
826.7361
826.7361
826.913
826.913
826.9581
826.9581
826.9929
826.9929
827.158
827.158
827.158
827.158
827.1655
827.1655
827.2207
827.2207
827.7747
827.7747
827.8591
827.8591
828.901
828.901
829.637
829.637
829.9493
829.9493
831.0336
831.0336
831.7863
831.7863
1045.1285
1045.1285
1045.9961
1045.9961
1046.0054
1046.0054
1046.4825
1046.4825
1046.5624
1046.5624
1046.8245
1046.8245
1046.8686
1046.8686
1046.8909
1046.8909
1047.1893
1047.1893
1047.2758
1047.2758
1047.3067
1047.3067
1047.3891
1047.3891
1047.3987
1047.3987
1047.4739
1047.4739
1047.5789
1047.5789
1047.6195
1047.6195
1047.6952
1047.6952
1047.7177
1047.7177
1047.791
1047.791
1047.822
1047.822
1048.0357
1048.0357
1048.1367
1048.1367
1048.2821
1048.2821
1048.3929
1048.3929
1048.4422
1048.4422
1048.4835
1048.4835
1048.4973
1048.4973
1048.5165
1048.5165
1048.5521
1048.5521
1048.5989
1048.5989
1048.6088
1048.6088
1048.6175
1048.6175
1048.7865
1048.7865
1048.7881
1048.7881
1048.8327
1048.8327
1048.901
1048.901
1048.9234
1048.9234
1048.9481
1048.9481
1049.0395
1049.0395
1049.1587
1049.1587
1049.1966
1049.1966
1049.2279
1049.2279
1049.2299
1049.2299
1049.3061
1049.3061
1049.3092
1049.3092
1049.337
1049.337
1049.4682
1049.4682
1049.4682
1049.4682
1049.5144
1049.5144
1049.6162
1049.6162
1049.6894
1049.6894
1049.7586
1049.7586
1049.7586
1049.7586
1049.7809
1049.7809
1049.8232
1049.8232
1049.9799
1049.9799
1049.9799
1049.9799
1050.0284
1050.0284
1050.089
1050.089
1050.1143
1050.1143
1050.1379
1050.1379
1050.1736
1050.1736
1050.2462
1050.2462
1050.3572
1050.3572
1050.415
1050.415
1050.4943
1050.4943
1050.5085
1050.5085
1050.5234
1050.5234
1050.5578
1050.5578
1050.5598
1050.5598
1050.5942
1050.5942
1050.5989
1050.5989
1050.6224
1050.6224
1050.6325
1050.6325
1050.6338
1050.6338
1050.6382
1050.6382
1050.7077
1050.7077
1050.7161
1050.7161
1050.7188
1050.7188
1050.728
1050.728
1050.8043
1050.8043
1050.8339
1050.8339
1050.846
1050.846
1050.8565
1050.8565
1050.8601
1050.8601
1050.9035
1050.9035
1050.9074
1050.9074
1050.9104
1050.9104
1050.9355
1050.9355
1050.9361
1050.9361
1050.9686
1050.9686
1050.9733
1050.9733
1051.0352
1051.0352
1051.0353
1051.0353
1051.0522
1051.0522
1051.0532
1051.0532
1051.0811
1051.0811
1051.1082
1051.1082
1051.1192
1051.1192
1051.1275
1051.1275
1051.1297
1051.1297
1051.1341
1051.1341
1051.1548
1051.1548
1051.1648
1051.1648
1051.1671
1051.1671
1051.1737
1051.1737
1051.1789
1051.1789
1051.1858
1051.1858
1051.2026
1051.2026
1051.2049
1051.2049
1051.2116
1051.2116
1051.2196
1051.2196
1051.2323
1051.2323
1051.2363
1051.2363
1051.2473
1051.2473
1051.2516
1051.2516
1051.2552
1051.2552
1051.2872
1051.2872
1051.3373
1051.3373
1051.3426
1051.3426
1051.4152
1051.4152
1051.4192
1051.4192
1051.4436
1051.4436
1051.453
1051.453
1051.4578
1051.4578
1051.461
1051.461
1051.4849
1051.4849
1051.4884
1051.4884
1051.5164
1051.5164
1051.54
1051.54
1051.5453
1051.5453
1051.5824
1051.5824
1051.5944
1051.5944
1051.5953
1051.5953
1051.5977
1051.5977
1051.6028
1051.6028
1051.6255
1051.6255
1051.6392
1051.6392
1051.6437
1051.6437
1051.6531
1051.6531
1051.6724
1051.6724
1051.6886
1051.6886
1051.6972
1051.6972
1051.7054
1051.7054
1051.7237
1051.7237
1051.7661
1051.7661
1051.7688
1051.7688
1051.7809
1051.7809
1051.7842
1051.7842
1051.7914
1051.7914
1051.8024
1051.8024
1051.8083
1051.8083
1051.8169
1051.8169
1051.8182
1051.8182
1051.8292
1051.8292
1051.8356
1051.8356
1051.8407
1051.8407
1051.8529
1051.8529
1051.8529
1051.8529
1051.8783
1051.8783
1051.8867
1051.8867
1051.8922
1051.8922
1051.9107
1051.9107
1051.9224
1051.9224
1051.9258
1051.9258
1051.9442
1051.9442
1051.9442
1051.9442
1051.9498
1051.9498
1051.9559
1051.9559
1051.9658
1051.9658
1051.966
1051.966
1051.9728
1051.9728
1051.9772
1051.9772
1051.9855
1051.9855
1051.9943
1051.9943
1052.0111
1052.0111
1052.0216
1052.0216
1052.0233
1052.0233
1052.0241
1052.0241
1052.0466
1052.0466
1052.0603
1052.0603
1052.0603
1052.0603
1052.0644
1052.0644
1052.0922
1052.0922
1052.0941
1052.0941
1052.0948
1052.0948
1052.0975
1052.0975
1052.1026
1052.1026
1052.1199
1052.1199
1052.1265
1052.1265
1052.128
1052.1457
1052.1457
1052.1461
1052.1461
1052.1477
1052.1477
1052.1477
1052.1477
1052.1572
1052.1572
1052.1643
1052.1643
1052.1645
1052.1645
1052.1662
1052.1662
1052.1662
1052.1662
1052.1764
1052.1764
1052.1778
1052.1778
1052.1797
1052.1797
1052.1824
1052.1824
1052.1824
1052.1824
1052.1947
1052.1947
1052.2051
1052.2051
1052.2062
1052.2062
1052.2104
1052.2104
1052.2177
1052.2177
1052.2237
1052.2237
1052.2257
1052.2257
1052.2266
1052.2266
1052.2308
1052.2308
1052.2308
1052.2308
1052.2323
1052.2323
1052.2421
1052.2421
1052.2433
1052.2433
1052.2435
1052.2435
1052.2435
1052.2435
1052.2503
1052.2503
1052.2585
1052.2585
1052.2585
1052.2585
1052.2606
1052.2606
1052.2624
1052.2624
1052.2625
1052.2625
1052.2629
1052.2824
1052.2824
1052.2846
1052.2846
1052.2871
1052.2871
1052.2871
1052.2871
1052.2915
1052.2915
1052.2971
1052.2971
1052.3196
1052.3196
1052.3196
1052.3196
1052.3225
1052.3225
1052.3268
1052.3268
1052.3291
1052.3291
1052.3387
1052.3387
1052.3387
1052.3387
1052.3403
1052.3403
1052.3501
1052.3501
1052.3556
1052.3556
1052.3556
1052.3556
1052.3642
1052.3642
1052.3667
1052.3667
1052.3681
1052.3681
1052.3681
1052.3681
1052.3748
1052.3748
1052.3803
1052.3803
1052.385
1052.385
1052.397
1052.397
1052.397
1052.397
1052.4067
1052.4067
1052.4078
1052.4078
1052.4111
1052.4111
1052.4111
1052.4111
1052.4253
1052.4253
1052.4265
1052.4265
1052.4265
1052.4265
1052.4486
1052.4486
1052.451
1052.451
1052.4518
1052.4518
1052.4547
1052.4547
1052.4547
1052.4547
1052.4769
1052.4769
1052.478
1052.478
1052.4792
1052.4792
1052.4826
1052.4826
1052.4918
1052.4918
1052.4945
1052.4945
1052.5055
1052.5055
1052.5091
1052.5091
1052.5188
1052.5188
1052.5188
1052.5188
1052.5192
1052.5192
1052.5254
1052.5254
1052.5286
1052.5286
1052.5344
1052.5344
1052.5354
1052.5354
1052.544
1052.544
1052.544
1052.544
1052.5519
1052.5519
1052.5519
1052.5519
1052.5544
1052.5544
1052.5573
1052.5573
1052.5717
1052.5717
1052.5858
1052.5858
1052.5917
1052.5917
1052.6123
1052.6123
1052.6124
1052.6124
1052.6134
1052.6134
1052.618
1052.618
1052.6369
1052.6369
1052.6388
1052.6388
1052.6493
1052.6493
1052.68
1052.68
1052.716
1052.716
1052.7166
1052.7166
1052.7275
1052.7275
1052.7426
1052.7426
1052.7447
1052.7447
1052.7466
1052.7466
1052.755
1052.755
1052.7554
1052.7554
1052.7598
1052.7598
1052.7688
1052.7688
1052.7775
1052.8082
1052.8082
1052.8128
1052.8128
1052.819
1052.819
1052.8494
1052.8494
1052.8498
1052.8558
1052.8558
1052.8891
1052.8891
1052.906
1052.906
1052.9131
1052.9131
1052.9317
1052.9317
1052.9437
1052.9437
1052.9453
1052.9453
1052.9871
1052.9871
1053.0129
1053.0129
1053.0383
1053.0383
1053.0383
1053.0383
1053.049
1053.049
1053.0798
1053.0798
1053.0871
1053.0871
1053.099
1053.099
1053.1181
1053.1181
1053.1236
1053.1236
1053.1345
1053.1345
1053.1389
1053.1389
1053.1698
1053.1698
1053.1712
1053.1712
1053.1718
1053.1718
1053.192
1053.192
1053.1952
1053.1952
1053.2292
1053.2292
1053.2375
1053.2375
1053.2391
1053.2391
1053.2566
1053.2566
1053.2615
1053.2615
1053.2665
1053.2665
1053.2665
1053.2665
1053.3181
1053.3181
1053.3583
1053.4068
1053.4068
1053.4196
1053.4196
1053.4308
1053.4308
1053.4517
1053.4517
1053.4737
1053.4737
1053.4833
1053.4833
1053.5225
1053.5225
1053.5488
1053.5488
1053.5544
1053.5544
1053.5578
1053.5578
1053.5776
1053.5776
1053.6302
1053.6302
1053.6616
1053.6616
1053.6661
1053.6661
1053.6721
1053.6721
1053.705
1053.705
1053.7183
1053.7183
1053.7293
1053.7293
1053.7631
1053.7631
1053.7638
1053.7638
1053.776
1053.776
1053.8458
1053.8458
1053.879
1053.879
1053.9108
1053.9108
1053.9868
1053.9868
1054.0056
1054.0056
1054.0096
1054.0096
1054.0212
1054.0212
1054.0338
1054.0338
1054.0363
1054.0363
1054.1757
1054.1757
1054.2024
1054.2024
1054.2636
1054.316
1054.316
1054.3523
1054.3523
1054.3905
1054.3905
1054.4414
1054.4414
1054.511
1054.511
1054.5717
1054.5717
1054.6546
1054.6546
1054.6903
1054.6903
1054.7004
1054.7671
1054.7671
1054.7704
1054.7704
1054.8303
1054.8303
1054.8407
1054.8407
1054.9245
1054.9245
1054.9539
1054.9539
1055.06
1055.06
1055.3062
1055.3062
1055.331
1055.331
1055.4611
1055.4611
1055.502
1055.502
1055.5319
1055.5319
1055.5319
1055.5319
1055.5477
1055.5477
1055.5734
1055.5734
1055.6824
1055.6824
1055.7705
1055.7705
1055.8934
1055.8934
1055.9474
1055.9474
1056.0653
1056.0653
1056.1558
1056.1558
1056.2388
1056.2388
1056.2514
1056.2748
1056.2748
1056.4468
1056.4468
1056.7485
1056.7485
1056.9317
1056.9317
1057.0697
1057.0697
1057.1929
1057.1929
1057.5277
1057.5277
1057.735
1057.735
1057.774
1057.774
1057.8924
1057.8924
1057.9728
1057.9728
1057.9752
1057.9752
1058.0444
1058.0444
1058.361
1058.361
1058.3803
1058.3803
1058.6121
1058.6121
1058.6419
1058.6419
1059.0434
1059.0434
1059.2106
1059.2106
1059.3785
1059.3785
1059.7673
1059.7673
1060.1949
1060.1949
1060.2109
1060.2109
1060.224
1060.224
1060.3345
1060.3345
1359.3091
1359.3091
1375.5452
1375.5452
1378.1707
1378.1707
1379.3345
1379.3345
1379.5595
1379.5595
1380.8216
1380.8216
1381.4055
1381.4055
1381.4515
1381.4515
1381.4768
1381.4768
1381.5679
1381.5679
1383.1651
1383.1651
1383.4027
1383.4027
1383.4027
1383.4027
1383.863
1383.863
1383.863
1383.863
1383.9841
1383.9841
1383.9905
1384.2576
1384.2576
1384.6226
1384.6226
1384.6627
1384.6627
1384.899
1384.899
1384.9569
1384.9569
1385.5872
1385.5872
1385.6043
1385.6043
1385.8552
1385.8552
1386.4409
1386.7253
1386.7253
1386.7558
1386.7558
1386.8929
1386.8929
1386.8929
1386.8929
1387.3787
1387.3787
1387.631
1387.631
1387.8004
1387.8004
1387.98
1387.98
1387.9875
1387.9875
1388.2104
1388.2104
1388.5476
1388.5476
1388.6482
1388.6482
1388.743
1388.743
1388.8816
1388.8816
1389.0848
1389.0848
1389.1028
1389.1028
1389.4797
1389.4797
1389.8268
1389.8268
1390.0428
1390.0428
1390.0739
1390.0739
1390.1016
1390.1016
1390.6492
1390.6492
1390.9775
1390.9775
1390.9928
1390.9928
1391.3161
1391.3161
1391.3841
1391.3841
1391.4359
1391.4359
1391.6489
1391.6489
1391.6489
1391.6489
1391.8434
1391.8434
1392.1209
1392.1209
1392.1305
1392.1305
1392.1335
1392.1335
1392.1976
1392.1976
1392.2965
1392.2965
1392.3917
1392.4063
1392.4063
1392.492
1392.492
1392.5472
1392.5472
1392.562
1392.562
1392.6216
1392.6216
1392.8479
1392.8479
1392.8594
1392.8594
1392.8805
1392.8805
1393.0684
1393.0684
1393.0908
1393.0908
1393.38
1393.38
1393.4691
1393.4691
1393.5929
1393.5929
1393.6314
1393.6314
1394.1086
1394.1086
1394.1422
1394.1422
1394.1787
1394.1787
1394.2954
1394.2954
1394.3441
1394.3441
1394.3479
1394.3479
1394.4017
1394.4017
1394.5675
1394.5675
1394.5675
1394.5675
1394.6564
1394.6564
1394.8747
1394.8747
1395.0009
1395.0009
1395.0118
1395.0118
1395.3516
1395.3516
1395.4536
1395.4536
1395.5149
1395.5149
1395.5504
1395.5504
1395.6631
1395.6631
1395.7076
1395.7076
1396.1657
1396.1657
1396.1994
1396.1994
1396.2217
1396.2217
1396.2499
1396.2499
1396.2645
1396.2645
1396.4355
1396.4355
1396.6011
1396.6011
1396.7411
1396.7411
1396.7538
1396.7538
1396.7662
1396.7662
1396.7695
1396.7695
1396.8061
1396.8061
1396.8891
1396.8891
1396.8966
1396.8966
1396.9762
1396.9762
1397.0208
1397.0208
1397.197
1397.197
1397.4519
1397.4519
1397.4944
1397.4944
1397.5886
1397.5886
1397.7046
1397.7046
1397.8418
1397.8418
1397.8418
1397.8418
1397.8963
1397.8963
1397.9023
1397.9023
1398.0329
1398.0329
1398.1283
1398.1283
1398.2507
1398.2507
1398.2507
1398.2507
1398.323
1398.323
1398.403
1398.403
1398.6825
1398.6825
1398.7278
1398.7278
1398.7278
1398.7278
1398.7643
1398.7643
1399.1793
1399.1793
1399.1898
1399.1898
1399.4194
1399.4194
1399.4904
1399.4904
1399.4904
1399.4904
1399.542
1399.542
1399.6393
1399.6393
1399.6703
1399.6703
1399.6753
1399.6753
1399.6762
1399.6762
1399.7784
1399.7784
1399.8842
1399.8842
1399.9005
1399.9005
1399.9241
1399.9241
1399.9455
1399.9455
1399.9455
1399.9455
1399.9838
1399.9838
1400.0696
1400.0696
1400.0999
1400.0999
1400.1917
1400.1917
1400.2854
1400.2854
1400.3129
1400.3129
1400.3649
1400.3649
1400.3857
1400.3857
1400.3857
1400.3857
1400.4474
1400.4474
1400.5149
1400.5149
1400.5537
1400.5537
1400.5537
1400.5537
1400.5684
1400.5684
1400.7436
1400.7436
1400.7503
1400.7503
1400.7775
1400.7775
1400.8149
1400.8149
1400.8371
1400.8371
1400.8878
1400.8878
1400.9172
1400.9172
1401.096
1401.096
1401.1516
1401.1516
1401.2186
1401.2186
1401.246
1401.246
1401.2478
1401.2478
1401.2738
1401.2738
1401.2937
1401.2937
1401.2937
1401.2937
1401.3126
1401.3126
1401.3182
1401.3182
1401.3556
1401.3556
1401.4332
1401.4332
1401.5019
1401.5019
1401.5595
1401.5595
1401.6707
1401.6707
1401.6835
1401.6835
1401.7094
1401.7094
1401.8603
1401.8603
1401.8709
1401.8709
1401.8981
1401.8981
1402.1297
1402.1297
1402.1706
1402.1706
1402.1969
1402.1969
1402.2826
1402.2826
1402.3441
1402.3441
1402.4018
1402.4018
1402.4563
1402.4563
1402.5396
1402.5396
1402.6281
1402.6281
1402.6382
1402.6382
1402.6706
1402.6706
1402.8611
1402.8611
1402.9296
1402.9296
1403.0345
1403.0345
1403.083
1403.083
1403.1238
1403.1238
1403.1605
1403.1605
1403.2616
1403.2616
1403.4146
1403.4146
1403.4676
1403.4676
1403.4887
1403.4887
1403.5398
1403.5398
1403.5586
1403.5586
1403.7047
1403.7047
1403.7717
1403.7717
1403.85
1403.85
1403.9472
1403.9472
1403.9821
1403.9821
1404.1216
1404.1216
1404.261
1404.261
1404.3357
1404.3357
1404.4934
1404.4934
1404.5589
1404.5589
1404.5722
1404.5722
1404.7178
1404.7178
1404.8244
1404.8244
1404.8251
1404.8251
1404.8609
1404.8609
1405.091
1405.091
1405.1162
1405.1162
1405.1812
1405.1812
1405.2658
1405.2658
1405.3018
1405.3018
1405.3327
1405.3327
1405.3394
1405.3394
1405.3725
1405.3725
1405.5323
1405.5323
1405.6667
1405.6667
1405.6705
1405.6705
1405.7382
1405.7382
1405.7813
1405.7813
1405.8314
1405.8314
1405.8409
1405.8409
1405.8681
1405.8681
1405.9009
1405.9009
1405.9088
1405.9088
1405.9256
1405.9256
1405.98
1405.98
1405.9805
1405.9805
1406.0446
1406.0446
1406.1482
1406.1482
1406.2864
1406.2864
1406.297
1406.297
1406.3275
1406.3275
1406.4332
1406.4332
1406.4332
1406.4332
1406.4966
1406.4966
1406.7005
1406.7005
1406.8284
1406.8284
1406.8573
1406.8573
1406.8595
1406.8595
1406.963
1406.963
1407.0641
1407.0641
1407.1581
1407.1581
1407.2283
1407.2283
1407.2644
1407.2644
1407.4483
1407.4483
1407.4592
1407.4592
1407.4692
1407.4692
1407.4956
1407.4956
1407.5533
1407.5533
1407.5646
1407.5646
1407.5822
1407.5822
1407.5988
1407.5988
1407.6115
1407.6115
1407.6273
1407.6273
1407.6589
1407.6589
1407.6657
1407.6657
1407.8566
1407.8566
1407.8742
1407.8742
1407.9369
1407.9369
1407.9739
1407.9739
1407.9739
1407.9739
1408.0684
1408.0684
1408.1875
1408.1875
1408.1916
1408.1916
1408.4221
1408.4221
1408.6028
1408.6028
1408.6406
1408.6406
1408.7395
1408.7395
1408.7415
1408.7415
1408.7826
1408.7826
1408.7832
1408.7832
1408.9479
1408.9479
1408.9585
1408.9585
1408.9712
1408.9712
1409.1153
1409.1153
1409.1706
1409.1706
1409.172
1409.172
1409.172
1409.172
1409.2184
1409.2184
1409.3788
1409.3788
1409.4385
1409.4385
1409.5306
1409.5306
1409.5526
1409.5526
1409.5686
1409.5686
1409.6386
1409.6386
1409.7059
1409.7059
1409.7253
1409.7253
1409.7746
1409.7746
1409.9703
1409.9703
1410.0889
1410.0889
1410.1011
1410.1011
1410.1124
1410.1124
1410.1124
1410.1124
1410.1656
1410.1656
1410.2156
1410.2156
1410.3897
1410.3897
1410.3936
1410.3936
1410.3995
1410.3995
1410.4107
1410.4107
1410.4761
1410.491
1410.491
1410.4942
1410.4942
1410.5073
1410.5073
1410.5278
1410.5278
1410.5344
1410.5344
1410.6114
1410.6114
1410.7036
1410.7036
1410.7266
1410.7266
1410.7714
1410.7714
1410.8032
1410.8032
1410.8538
1410.8538
1410.9197
1410.9197
1410.9437
1410.9437
1411.0248
1411.0248
1411.0248
1411.0248
1411.1066
1411.1066
1411.1066
1411.1066
1411.1084
1411.1084
1411.1734
1411.1734
1411.2002
1411.2002
1411.2453
1411.2453
1411.2516
1411.2516
1411.286
1411.286
1411.2916
1411.2916
1411.3956
1411.4175
1411.4175
1411.4839
1411.4839
1411.5066
1411.5066
1411.5066
1411.5066
1411.5613
1411.5613
1411.7221
1411.7221
1411.795
1411.795
1411.9127
1411.9127
1412.0403
1412.0403
1412.0745
1412.0745
1412.1323
1412.1323
1412.139
1412.139
1412.2349
1412.2349
1412.252
1412.252
1412.252
1412.252
1412.2535
1412.2535
1412.2535
1412.2535
1412.2544
1412.2544
1412.2544
1412.2544
1412.2738
1412.2738
1412.5595
1412.5595
1412.6279
1412.6279
1412.6679
1412.6679
1412.6717
1412.6717
1412.7662
1412.7662
1412.7662
1412.7662
1412.9616
1412.9616
1413.1261
1413.1261
1413.1261
1413.1261
1413.2099
1413.2099
1413.2429
1413.2429
1413.3306
1413.3306
1413.524
1413.524
1413.5425
1413.5425
1413.6766
1413.6766
1413.6795
1413.6795
1413.8209
1413.8209
1413.8626
1413.8626
1413.8942
1413.8942
1414.0256
1414.0883
1414.0883
1414.1639
1414.1639
1414.2724
1414.2724
1414.3876
1414.3876
1414.3964
1414.3964
1414.4603
1414.4603
1414.6629
1414.6629
1414.7867
1414.7867
1414.9433
1414.9433
1415.0722
1415.0722
1415.0722
1415.0722
1415.0987
1415.0987
1415.1124
1415.1124
1415.2166
1415.2166
1415.2344
1415.2344
1415.3005
1415.3005
1415.3505
1415.3505
1415.3552
1415.3552
1415.5969
1415.5969
1415.6759
1415.6759
1415.7392
1415.7392
1415.7426
1415.7426
1415.8587
1415.8587
1415.9076
1415.9076
1416.0729
1416.0729
1416.0982
1416.0982
1416.1699
1416.1699
1416.3687
1416.3687
1416.4412
1416.4412
1416.4734
1416.4734
1416.514
1416.514
1416.5713
1416.5713
1416.7116
1416.7116
1416.8564
1416.8564
1416.9444
1416.9444
1416.9868
1416.9868
1417.198
1417.198
1417.2162
1417.2162
1417.2373
1417.2373
1417.2643
1417.2643
1417.5621
1417.5621
1417.7197
1417.7197
1417.725
1417.725
1417.7933
1417.7933
1417.8312
1417.8312
1418.0707
1418.0707
1418.0859
1418.0859
1418.0981
1418.0981
1418.0981
1418.0981
1418.1364
1418.1364
1418.2059
1418.2059
1418.3516
1418.3516
1418.4518
1418.4518
1418.4973
1418.4973
1418.7267
1418.7267
1418.8682
1418.8682
1418.8784
1418.8784
1419.0679
1419.0679
1419.1918
1419.1918
1419.3887
1419.3887
1419.4264
1419.4264
1419.5162
1419.5162
1419.5162
1419.5162
1419.6724
1419.6724
1419.7757
1419.7757
1419.8011
1419.8011
1419.831
1419.831
1420.0495
1420.0495
1420.1664
1420.1664
1420.6766
1420.6766
1420.7215
1420.7215
1420.7649
1420.7649
1420.7791
1420.7791
1420.8215
1420.8215
1420.8546
1420.8546
1420.891
1420.891
1421.1077
1421.1077
1421.1111
1421.1111
1421.1664
1421.1664
1421.2109
1421.2109
1421.2297
1421.2297
1421.2304
1421.2304
1421.3186
1421.3186
1421.3238
1421.3238
1421.3435
1421.3435
1421.4045
1421.4045
1421.4217
1421.4217
1421.4911
1421.4911
1421.4924
1421.4924
1421.5027
1421.5027
1421.7501
1421.7501
1421.8613
1421.8613
1421.9145
1421.9145
1422.0764
1422.0764
1422.0769
1422.0769
1422.1577
1422.1577
1422.1585
1422.1585
1422.3918
1422.3918
1422.4551
1422.4551
1422.6247
1422.6247
1422.7159
1422.7159
1422.8083
1422.8083
1423.13
1423.13
1423.3195
1423.3195
1423.5253
1423.5253
1423.5777
1423.5777
1423.6382
1423.6382
1423.651
1423.651
1423.8722
1423.8722
1423.8743
1423.8743
1423.9696
1423.9696
1423.9725
1423.9725
1424.0289
1424.0289
1424.431
1424.431
1424.5992
1424.5992
1424.6579
1424.6579
1424.7732
1424.7732
1425.0684
1425.0684
1425.33
1425.33
1425.6071
1425.6071
1425.7406
1425.7406
1425.7406
1425.7406
1425.9187
1425.9187
1425.9979
1425.9979
1426.0646
1426.0646
1426.237
1426.237
1426.3181
1426.3181
1426.5011
1426.5011
1426.5164
1426.5164
1426.5991
1426.5991
1426.633
1426.633
1426.6428
1426.6428
1426.6428
1426.6428
1426.7751
1426.7751
1427.0959
1427.0959
1427.1474
1427.1474
1427.2337
1427.2337
1427.2901
1427.2901
1427.3922
1427.3922
1427.4065
1427.4065
1427.5713
1427.5713
1427.7065
1427.7065
1427.7145
1427.7145
1428.0323
1428.0323
1428.2521
1428.2521
1428.76
1428.76
1428.7835
1428.7835
1428.7906
1428.7906
1428.8481
1428.8481
1428.871
1428.871
1429.2444
1429.2444
1429.5953
1429.5953
1430.0437
1430.0437
1430.5185
1430.5581
1430.5581
1430.6228
1430.6228
1430.9783
1430.9783
1431.0223
1431.3238
1431.3238
1431.4269
1431.4269
1431.7159
1431.7159
1431.8347
1431.8347
1431.901
1431.901
1431.9124
1431.9124
1431.9213
1431.9213
1432.0124
1432.0124
1432.0198
1432.0198
1432.112
1432.112
1432.2816
1432.2816
1432.4077
1432.4077
1432.5324
1432.5324
1432.5437
1432.5437
1432.6888
1432.6888
1432.6943
1432.6943
1432.8314
1432.8314
1432.8528
1432.8528
1432.8752
1432.8752
1432.8935
1432.8935
1433.3438
1433.3438
1433.4207
1433.4207
1433.9245
1433.9245
1434.0505
1434.0505
1434.1156
1434.7628
1434.7628
1434.7628
1434.7628
1434.7736
1434.7736
1434.9129
1434.9129
1435.052
1435.052
1435.0659
1435.0659
1435.1918
1435.1918
1435.7854
1435.7854
1436.0157
1436.0157
1436.0641
1436.0641
1436.0641
1436.0641
1436.7322
1436.7322
1436.7322
1436.7322
1436.7475
1436.7475
1436.7952
1436.7952
1436.8472
1436.8472
1436.8551
1436.8551
1436.8981
1436.8981
1437.3986
1437.3986
1438.422
1438.422
1438.4652
1438.4652
1438.5329
1438.5329
1438.6342
1438.6342
1438.689
1438.689
1438.7844
1438.7844
1438.8609
1438.8609
1438.9163
1438.9163
1439.2047
1439.2047
1439.4944
1439.4944
1439.6495
1439.6495
1439.9145
1439.9145
1439.9327
1439.9327
1440.138
1440.138
1440.1913
1440.1913
1440.2452
1440.2452
1440.308
1440.308
1440.346
1440.346
1440.3844
1440.3844
1440.4639
1440.4639
1440.5045
1440.5045
1440.5599
1440.5599
1440.7144
1440.7144
1440.7144
1440.7144
1440.7283
1440.7283
1440.7283
1440.7283
1440.9618
1440.9618
1441.0375
1441.0375
1441.0375
1441.0375
1441.3494
1441.3494
1441.5465
1441.5465
1441.6917
1441.6917
1441.8344
1441.8344
1442.3067
1442.3067
1442.3184
1442.3184
1442.3211
1442.3211
1442.3862
1442.3862
1442.3862
1442.3862
1442.4322
1442.4322
1442.5858
1442.5858
1443.1439
1443.1439
1443.4462
1443.4462
1443.6495
1443.6495
1443.8746
1443.8746
1443.9452
1443.9452
1444.1927
1444.1927
1444.1989
1444.1989
1444.3908
1444.3908
1444.8069
1444.8069
1445.0013
1445.0013
1445.0401
1445.0401
1445.339
1445.339
1445.6662
1445.6662
1445.7012
1445.7012
1446.0084
1446.0084
1446.2973
1446.2973
1446.6795
1446.6795
1446.9277
1446.9277
1446.9287
1446.9287
1446.9587
1446.9587
1447.0105
1447.0105
1447.2596
1447.2596
1447.4235
1447.4235
1447.6292
1447.6292
1447.7155
1447.7155
1447.753
1447.753
1447.944
1447.944
1448.0694
1448.0694
1448.0708
1448.0708
1448.1849
1448.1849
1448.1909
1448.1909
1448.2033
1448.2033
1448.3211
1448.3211
1448.6429
1448.6429
1448.7835
1448.7835
1449.4868
1449.4868
1450.2834
1450.2834
1450.5056
1450.5056
1450.8545
1450.8545
1450.8608
1450.8608
1451.1991
1451.1991
1451.5351
1451.5351
1451.7506
1451.7506
1451.9145
1451.9145
1451.967
1451.967
1451.9917
1451.9917
1452.2678
1452.2678
1452.389
1452.389
1452.7954
1452.7954
1452.996
1452.996
1453.1474
1453.1474
1453.2078
1453.2078
1453.2563
1453.2563
1453.3208
1453.3208
1453.4703
1453.4703
1453.4836
1453.4836
1453.5814
1453.5814
1454.0362
1454.0362
1454.0731
1454.0731
1454.1411
1454.1411
1454.322
1454.322
1454.3694
1454.3694
1454.3981
1454.3981
1454.97
1454.97
1455.2582
1455.2582
1455.4562
1455.4562
1456.3624
1456.3624
1456.428
1456.428
1456.428
1456.428
1456.6767
1456.6767
1456.9051
1456.9051
1457.0
1457.0
1457.0
1457.0
1457.3953
1457.3953
1457.4007
1457.4007
1457.6018
1457.6018
1457.6018
1457.6018
1457.8861
1457.8861
1458.2923
1458.2923
1458.6314
1458.6314
1458.7002
1458.7002
1459.0837
1459.0837
1459.0837
1459.0837
1459.2847
1459.2847
1459.6702
1459.6702
1460.0587
1460.0587
1460.3769
1460.3769
1460.4347
1460.4347
1460.4347
1460.4347
1460.6312
1460.6312
1460.7003
1460.7003
1460.7857
1460.7857
1461.0475
1461.0475
1461.0852
1461.0852
1461.1462
1461.1462
1461.1462
1461.1462
1461.2275
1461.2275
1461.2275
1461.2275
1461.4344
1461.4344
1461.4344
1461.4344
1462.6725
1462.6725
1462.7538
1462.7538
1463.0448
1463.0448
1463.2388
1463.2388
1463.2388
1463.2388
1463.3982
1463.3982
1463.5876
1463.5876
1464.2032
1464.2032
1464.2402
1464.2402
1464.3166
1464.3166
1464.5996
1464.5996
1464.65
1464.65
1464.9135
1464.9135
1465.0121
1465.0121
1465.1736
1465.1736
1465.1736
1465.1736
1465.2341
1465.2341
1466.3834
1466.3834
1466.4037
1466.4037
1466.5874
1466.5874
1466.6678
1466.6678
1466.8053
1466.8053
1466.8773
1466.8773
1466.9782
1466.9782
1466.9996
1466.9996
1467.1147
1467.1147
1467.2005
1467.2005
1467.5273
1467.5273
1467.5273
1467.5273
1467.8873
1467.8873
1467.9708
1467.9708
1468.2234
1468.2234
1468.3371
1468.3371
1468.4889
1468.4889
1468.9229
1468.9229
1469.1852
1469.1852
1469.2089
1469.2089
1469.2928
1469.2928
1469.5565
1469.5565
1470.0512
1470.0512
1470.0535
1470.0535
1470.2743
1470.2743
1470.5371
1470.5371
1470.583
1470.583
1470.7263
1470.7263
1470.9723
1470.9723
1471.9946
1471.9946
1471.9946
1471.9946
1472.0599
1472.0599
1472.3559
1472.3559
1472.5972
1472.5972
1472.8207
1472.8207
1472.9295
1472.9295
1473.5135
1473.5135
1473.657
1473.657
1473.715
1473.715
1474.0936
1474.0936
1474.1614
1474.1614
1474.4961
1474.4961
1474.6261
1474.6261
1474.6877
1474.6877
1475.7011
1475.7011
1476.3913
1476.3913
1476.4947
1476.4947
1476.5076
1476.5076
1476.8169
1476.8169
1477.6671
1477.6671
1477.7239
1477.7239
1478.2018
1478.2018
1478.3935
1478.3935
1478.5591
1478.5591
1478.8084
1478.8084
1478.8595
1478.8595
1478.9358
1478.9358
1479.0666
1479.0666
1479.0857
1479.0857
1479.146
1479.146
1479.2116
1479.2116
1479.2603
1479.2603
1479.2822
1479.2822
1479.4548
1479.4548
1479.5968
1479.5968
1480.0354
1480.0354
1480.2194
1480.2194
1480.428
1480.428
1480.6183
1480.6183
1481.2211
1481.2211
1481.2266
1481.2266
1481.2558
1481.2558
1481.2616
1481.2616
1481.3575
1481.3575
1481.8601
1481.8601
1482.0716
1482.0716
1482.2274
1482.2274
1482.323
1482.323
1482.4368
1482.4368
1482.658
1482.658
1482.7648
1482.7648
1482.7724
1482.7724
1482.9053
1482.9053
1483.0664
1483.0664
1483.2464
1483.2464
1483.6887
1483.6887
1484.0689
1484.1825
1484.1825
1484.3115
1484.3115
1484.521
1485.9339
1486.1242
1486.1242
1486.256
1486.256
1486.9052
1486.9052
1486.9272
1486.9272
1487.0407
1487.0407
1487.1344
1487.1344
1487.1362
1487.1362
1487.1362
1487.1362
1487.2196
1487.2196
1487.3908
1487.3908
1487.4669
1487.4669
1487.6771
1487.6771
1487.6771
1487.6771
1488.1732
1488.1732
1488.267
1488.267
1488.3829
1488.3829
1488.3829
1488.3829
1488.4437
1488.4437
1489.1813
1489.1813
1489.2994
1489.2994
1489.6688
1489.6688
1491.2947
1491.2947
1491.5253
1491.5253
1491.8062
1491.8062
1493.1436
1493.1436
1493.1857
1493.1857
1494.1674
1494.1674
1495.3143
1495.3143
1495.6215
1495.6215
1496.1928
1496.1928
1496.9855
1496.9855
1497.6794
1497.6794
1497.8947
1497.8947
1498.0126
1498.0126
1500.7965
1500.7965
1503.839
1503.839
